Folder: Non-Linear-XRD-Inversion/Generating XRD fingerprints/INPUT/Detrital data (part 20)

File: 25_9_11_30_1_PF_FILTER.txt
Filename:
	C:\Program Files\Thermo Electron\WinXRD\Datafiles\FIEN\25_9_11_30_1 FILTER.pk

File Created:
	April 15, 2019 - 03:42 PM

Specimen Id:
	25.9  11.30 1 FILTER

Specimen Name:

Specimen Description:

Comment:
Scan Type: 2Theta Scan
Start Angle: 1 deg.
Stop Angle: 65 deg.
Num Points: 3201
Step Size: 0.02 deg.
Scan Rate: 1.000000
Scan Mode: Continuous
Wavelength: 1.540562
\Kalpha1: 1.540562	\Kalpha2: 1.544390	\Kbeta: 1.392218

Optics:
		Detector:
			 Type: Fixed Slits
		Tube:
			 Type: Fixed Slits

Datas:
Peaks:

Position        Dspace          ESD(P)          Corr.Fact       Intensity       Rel.Int.        FWHM(L)         ESD(L)          Area            Source                  Curve           Strain  CSize   CSize_Source
[deg]           [A]             [deg]           [deg]           [CPS]           [CPS]           [deg]           [deg]           [deg]           [--]                    [--]            [--]    [--]    [--]
  2.7000        32.6948           0.0000          0.0000            59.17         2.76          0.1400            0.0000           3.5500       PFind                   None            0.00    0.00    None
  2.9800        29.6234           0.0000          0.0000            51.67         2.41          0.1200            0.0000           2.0667       PFind                   None            0.00    0.00    None
  3.4400        25.6631           0.0000          0.0000            47.50         2.21          0.1200            0.0000           7.6000       PFind                   None            0.00    0.00    None
  3.7600        23.4797           0.0000          0.0000            56.67         2.64          0.1600            0.0000           5.6667       PFind                   None            0.00    0.00    None
  4.1200        21.4288           0.0000          0.0000            59.17         2.76          0.1400            0.0000           2.3667       PFind                   None            0.00    0.00    None
  4.3600        20.2498           0.0000          0.0000            45.00         2.10          0.1400            0.0000           2.7000       PFind                   None            0.00    0.00    None
  4.6200        19.1107           0.0000          0.0000            38.33         1.79          0.1200            0.0000           1.5333       PFind                   None            0.00    0.00    None
  4.9000        18.0193           0.0000          0.0000            34.17         1.59          0.1000            0.0000           4.7833       PFind                   None            0.00    0.00    None
  5.3400        16.5355           0.0000          0.0000            28.33         1.32          0.0800            0.0000           0.5667       PFind                   None            0.00    0.00    None
  6.3000        14.0178           0.0000          0.0000           270.00        12.58          0.1400            0.0000          43.2000       PFind                   None            0.00    0.00    None
  6.8400        12.9123           0.0000          0.0000            44.17         2.06          0.0200            0.0000           1.7667       PFind                   None            0.00    0.00    None
  7.3000        12.0996           0.0000          0.0000            45.00         2.10          0.1200            0.0000           5.4000       PFind                   None            0.00    0.00    None
  7.7600        11.3834           0.0000          0.0000            40.00         1.86          0.1600            0.0000           1.6000       PFind                   None            0.00    0.00    None
  8.1200        10.8795           0.0000          0.0000            60.00         2.80          0.0600            0.0000           0.0000       PFind                   None            0.00    0.00    None
  8.4200        10.4925           0.0000          0.0000            62.50         2.91          0.1400            0.0000           3.7500       PFind                   None            0.00    0.00    None
  9.5000         9.3020           0.0000          0.0000           110.83         5.16          0.0200            0.0000          11.0833       PFind                   None            0.00    0.00    None
 11.1000         7.9645           0.0000          0.0000            30.83         1.44          0.0600            0.0000           0.6167       PFind                   None            0.00    0.00    None
 12.5600         7.0418           0.0000          0.0000           705.83        32.88          0.1000            0.0000         112.9333       PFind                   None            0.00    0.00    None
 13.7800         6.4210           0.0000          0.0000            50.83         2.37          0.1600            0.0000           4.0667       PFind                   None            0.00    0.00    None
 17.9000         4.9513           0.0000          0.0000           360.00        16.77          0.0400            0.0000          50.4000       PFind                   None            0.00    0.00    None
 19.8000         4.4802           0.0000          0.0000            33.33         1.55          0.1600            0.0000           5.3333       PFind                   None            0.00    0.00    None
 20.0800         4.4184           0.0000          0.0000            53.33         2.48          0.1400            0.0000           2.1333       PFind                   None            0.00    0.00    None
 21.8000         4.0735           0.0000          0.0000            30.00         1.40          0.0800            0.0000           1.2000       PFind                   None            0.00    0.00    None
 22.4800         3.9518           0.0000          0.0000            29.17         1.36          0.0400            0.0000           1.1667       PFind                   None            0.00    0.00    None
 23.6400         3.7604           0.0000          0.0000            85.83         4.00          0.0600            0.0000          10.3000       PFind                   None            0.00    0.00    None
 24.7200         3.5985           0.0000          0.0000           544.17        25.35          0.0600            0.0000          87.0667       PFind                   None            0.00    0.00    None
 25.5600         3.4822           0.0000          0.0000            72.50         3.38          0.0200            0.0000          11.6000       PFind                   None            0.00    0.00    None
 26.9600         3.3044           0.0000          0.0000           953.33        44.41          0.0600            0.0000         152.5333       PFind                   None            0.00    0.00    None
 28.0000         3.1840           0.0000          0.0000           532.50        24.81          0.0600            0.0000          53.2500       PFind                   None            0.00    0.00    None
 28.7000         3.1079           0.0000          0.0000           135.00         6.29          0.1600            0.0000          18.9000       PFind                   None            0.00    0.00    None
 30.2600         2.9512           0.0000          0.0000            61.67         2.87          0.1600            0.0000           1.2333       PFind                   None            0.00    0.00    None
 31.3400         2.8519           0.0000          0.0000            60.00         2.80          0.0800            0.0000           9.6000       PFind                   None            0.00    0.00    None
 32.1400         2.7827           0.0000          0.0000            34.17         1.59          0.0800            0.0000           3.4167       PFind                   None            0.00    0.00    None
 32.3800         2.7626           0.0000          0.0000            79.17         3.69          0.0400            0.0000           0.0000       PFind                   None            0.00    0.00    None
 34.6600         2.5859           0.0000          0.0000            30.00         1.40          0.0200            0.0000           1.8000       PFind                   None            0.00    0.00    None
 35.1400         2.5517           0.0000          0.0000            33.33         1.55          0.0800            0.0000           5.3333       PFind                   None            0.00    0.00    None
 36.1400         2.4833           0.0000          0.0000            90.00         4.19          0.1200            0.0000          10.8000       PFind                   None            0.00    0.00    None
 36.7600         2.4429           0.0000          0.0000            36.67         1.71          0.0400            0.0000           2.2000       PFind                   None            0.00    0.00    None
 37.5000         2.3963           0.0000          0.0000            44.17         2.06          0.1200            0.0000           3.5333       PFind                   None            0.00    0.00    None
 38.7200         2.3236           0.0000          0.0000            29.17         1.36          0.0400            0.0000           2.9167       PFind                   None            0.00    0.00    None
 42.5400         2.1234           0.0000          0.0000            40.83         1.90          0.1000            0.0000           6.5333       PFind                   None            0.00    0.00    None
 45.0400         2.0111           0.0000          0.0000            29.17         1.36          0.1000            0.0000           2.9167       PFind                   None            0.00    0.00    None
 46.0800         1.9681           0.0000          0.0000            28.33         1.32          0.0600            0.0000           1.7000       PFind                   None            0.00    0.00    None
 50.2400         1.8145           0.0000          0.0000            68.33         3.18          0.1200            0.0000           5.4667       PFind                   None            0.00    0.00    None
 50.6800         1.7998           0.0000          0.0000            52.50         2.45          0.0400            0.0000           2.1000       PFind                   None            0.00    0.00    None
 54.9800         1.6687           0.0000          0.0000            40.83         1.90          0.0000            0.0000           3.2667       PFind                   None            0.00    0.00    None
 57.6800         1.5969           0.0000          0.0000            28.33         1.32          0.0800            0.0000           0.0000       PFind                   None            0.00    0.00    None
 60.2200         1.5355           0.0000          0.0000            43.33         2.02          0.1600            0.0000           3.4667       PFind                   None            0.00    0.00    None
 64.6800         1.4399           0.0000          0.0000           312.50        14.56          0.0200            0.0000          43.7500       PFind                   None            0.00    0.00    None

File: 25_9_11_30_2.txt
Position	Dspace	ESD(P)	Corr.Fact	Intensity	Rel.Int.	FWHM(L)	ESD(L)	Area	Source	Curve	Strain	CSize	CSize_Source
[deg]	[A]	[deg]	[deg]	[CPS]	[CPS]	[deg]	[deg]	[deg]	[--]	[--]	[--]	[--]	[--]
3.7600	23.4797	0.0000	0.0000	38.33	3.75	0.1600	0.0000	4.6000	PFind	None	0.00	0.00	None
4.2400	20.8226	0.0000	0.0000	40.83	3.99	0.1400	0.0000	0.0000	PFind	None	0.00	0.00	None
4.4600	19.7960	0.0000	0.0000	35.00	3.42	0.0600	0.0000	2.1000	PFind	None	0.00	0.00	None
4.8000	18.3945	0.0000	0.0000	37.50	3.67	0.1400	0.0000	0.7500	PFind	None	0.00	0.00	None
5.1200	17.2455	0.0000	0.0000	35.00	3.42	0.0200	0.0000	1.4000	PFind	None	0.00	0.00	None
5.3600	16.4739	0.0000	0.0000	40.00	3.91	0.1400	0.0000	1.6000	PFind	None	0.00	0.00	None
5.5200	15.9967	0.0000	0.0000	36.67	3.59	0.1400	0.0000	2.9333	PFind	None	0.00	0.00	None
5.7400	15.3841	0.0000	0.0000	35.83	3.50	0.0400	0.0000	1.4333	PFind	None	0.00	0.00	None
6.3400	13.9295	0.0000	0.0000	51.67	5.05	0.1400	0.0000	8.2667	PFind	None	0.00	0.00	None
6.3800	13.8422	0.0000	0.0000	51.67	5.05	0.1000	0.0000	8.2667	PFind	None	0.00	0.00	None
6.7800	13.0264	0.0000	0.0000	35.00	3.42	0.1600	0.0000	2.1000	PFind	None	0.00	0.00	None
7.2400	12.1998	0.0000	0.0000	36.67	3.59	0.1200	0.0000	2.2000	PFind	None	0.00	0.00	None
9.0400	9.7743	0.0000	0.0000	249.17	24.37	0.1600	0.0000	24.9167	PFind	None	0.00	0.00	None
9.5800	9.2245	0.0000	0.0000	40.00	3.91	0.0200	0.0000	4.0000	PFind	None	0.00	0.00	None
12.3200	7.1784	0.0000	0.0000	153.33	15.00	0.1400	0.0000	21.4667	PFind	None	0.00	0.00	None
12.5400	7.0530	0.0000	0.0000	133.33	13.04	0.1400	0.0000	18.6667	PFind	None	0.00	0.00	None
13.8800	6.3749	0.0000	0.0000	93.33	9.13	0.1200	0.0000	5.6000	PFind	None	0.00	0.00	None
17.8800	4.9568	0.0000	0.0000	149.17	14.59	0.1400	0.0000	20.8833	PFind	None	0.00	0.00	None
18.6800	4.7462	0.0000	0.0000	38.33	3.75	0.1000	0.0000	3.0667	PFind	None	0.00	0.00	None
18.9000	4.6915	0.0000	0.0000	85.00	8.31	0.1200	0.0000	11.9000	PFind	None	0.00	0.00	None
21.0000	4.2268	0.0000	0.0000	249.17	24.37	0.0400	0.0000	39.8667	PFind	None	0.00	0.00	None
22.1600	4.0081	0.0000	0.0000	140.83	13.77	0.0600	0.0000	16.9000	PFind	None	0.00	0.00	None
23.1600	3.8373	0.0000	0.0000	240.83	23.55	0.1600	0.0000	19.2667	PFind	None	0.00	0.00	None
23.7000	3.7511	0.0000	0.0000	55.83	5.46	0.1400	0.0000	6.7000	PFind	None	0.00	0.00	None
24.4200	3.6421	0.0000	0.0000	76.67	7.50	0.1600	0.0000	9.2000	PFind	None	0.00	0.00	None
24.7000	3.6014	0.0000	0.0000	163.33	15.97	0.1000	0.0000	26.1333	PFind	None	0.00	0.00	None
25.2800	3.5201	0.0000	0.0000	165.83	16.22	0.1000	0.0000	19.9000	PFind	None	0.00	0.00	None
25.5000	3.4902	0.0000	0.0000	40.83	3.99	0.1200	0.0000	4.0833	PFind	None	0.00	0.00	None
25.6600	3.4688	0.0000	0.0000	55.83	5.46	0.1000	0.0000	7.8167	PFind	None	0.00	0.00	None
26.7800	3.3262	0.0000	0.0000	1022.50	100.00	0.1200	0.0000	143.1500	PFind	None	0.00	0.00	None
27.6000	3.2292	0.0000	0.0000	239.17	23.39	0.0600	0.0000	28.7000	PFind	None	0.00	0.00	None
28.0400	3.1796	0.0000	0.0000	425.83	41.65	0.0200	0.0000	68.1333	PFind	None	0.00	0.00	None
28.7200	3.1058	0.0000	0.0000	53.33	5.22	0.1200	0.0000	5.3333	PFind	None	0.00	0.00	None
30.0200	2.9742	0.0000	0.0000	50.00	4.89	0.0400	0.0000	7.0000	PFind	None	0.00	0.00	None
30.2800	2.9493	0.0000	0.0000	51.67	5.05	0.1600	0.0000	2.0667	PFind	None	0.00	0.00	None
30.6400	2.9154	0.0000	0.0000	41.67	4.07	0.0600	0.0000	5.8333	PFind	None	0.00	0.00	None
31.3600	2.8501	0.0000	0.0000	54.17	5.30	0.1400	0.0000	6.5000	PFind	None	0.00	0.00	None
31.7000	2.8203	0.0000	0.0000	45.00	4.40	0.1200	0.0000	5.4000	PFind	None	0.00	0.00	None
35.2000	2.5475	0.0000	0.0000	39.17	3.83	0.0800	0.0000	2.3500	PFind	None	0.00	0.00	None
35.7600	2.5089	0.0000	0.0000	85.83	8.39	0.0800	0.0000	10.3000	PFind	None	0.00	0.00	None
36.2200	2.4780	0.0000	0.0000	40.00	3.91	0.1200	0.0000	5.6000	PFind	None	0.00	0.00	None
36.6400	2.4506	0.0000	0.0000	105.83	10.35	0.0800	0.0000	12.7000	PFind	None	0.00	0.00	None
37.8200	2.3768	0.0000	0.0000	34.17	3.34	0.0800	0.0000	0.6833	PFind	None	0.00	0.00	None
38.2200	2.3528	0.0000	0.0000	870.00	85.09	0.0000	0.0000	121.8000	PFind	None	0.00	0.00	None
39.6000	2.2740	0.0000	0.0000	105.00	10.27	0.1400	0.0000	8.4000	PFind	None	0.00	0.00	None
40.4000	2.2308	0.0000	0.0000	36.67	3.59	0.1200	0.0000	2.9333	PFind	None	0.00	0.00	None
41.8600	2.1563	0.0000	0.0000	44.17	4.32	0.1200	0.0000	4.4167	PFind	None	0.00	0.00	None
42.6200	2.1196	0.0000	0.0000	76.67	7.50	0.1200	0.0000	12.2667	PFind	None	0.00	0.00	None
44.4000	2.0386	0.0000	0.0000	473.33	46.29	0.0600	0.0000	66.2667	PFind	None	0.00	0.00	None
45.7800	1.9803	0.0000	0.0000	304.17	29.75	0.0800	0.0000	36.5000	PFind	None	0.00	0.00	None
50.2400	1.8145	0.0000	0.0000	394.17	38.55	0.0400	0.0000	47.3000	PFind	None	0.00	0.00	None
51.2600	1.7808	0.0000	0.0000	103.33	10.11	0.1600	0.0000	14.4667	PFind	None	0.00	0.00	None
58.2800	1.5819	0.0000	0.0000	35.00	3.42	0.1400	0.0000	1.4000	PFind	None	0.00	0.00	None
60.1000	1.5382	0.0000	0.0000	69.17	6.76	0.1200	0.0000	9.6833	PFind	None	0.00	0.00	None
60.2400	1.5350	0.0000	0.0000	47.50	4.65	0.1400	0.0000	6.6500	PFind	None	0.00	0.00	None
61.5600	1.5052	0.0000	0.0000	39.17	3.83	0.0800	0.0000	6.2667	PFind	None	0.00	0.00	None
63.6000	1.4618	0.0000	0.0000	35.00	3.42	0.1400	0.0000	0.7000	PFind	None	0.00	0.00	None
64.5200	1.4431	0.0000	0.0000	385.00	37.65	0.0400	0.0000	23.1000	PFind	None	0.00	0.00	None
64.7000	1.4395	0.0000	0.0000	193.33	18.91	0.0600	0.0000	15.4667	PFind	None	0.00	0.00	None

File: 25_9_14.20_1.txt
Position	Dspace	ESD(P)	Corr.Fact	Intensity	Rel.Int.	FWHM(L)	ESD(L)	Area	Source	Curve	Strain	CSize	CSize_Source
[deg]	[A]	[deg]	[deg]	[CPS]	[CPS]	[deg]	[deg]	[deg]	[--]	[--]	[--]	[--]	[--]
4.1400	21.3253	0.0000	0.0000	48.33	0.26	0.1600	0.0000	0.9667	PFind	None	0.00	0.00	None
4.3200	20.4372	0.0000	0.0000	52.50	0.28	0.0800	0.0000	0.0000	PFind	None	0.00	0.00	None
6.3200	13.9735	0.0000	0.0000	93.33	0.50	0.0800	0.0000	7.4667	PFind	None	0.00	0.00	None
8.9600	9.8614	0.0000	0.0000	204.17	1.09	0.1200	0.0000	16.3333	PFind	None	0.00	0.00	None
12.2600	7.2134	0.0000	0.0000	132.50	0.71	0.0400	0.0000	21.2000	PFind	None	0.00	0.00	None
12.5400	7.0530	0.0000	0.0000	250.00	1.34	0.0600	0.0000	30.0000	PFind	None	0.00	0.00	None
13.9600	6.3386	0.0000	0.0000	229.17	1.23	0.0800	0.0000	13.7500	PFind	None	0.00	0.00	None
17.6800	5.0124	0.0000	0.0000	154.17	0.83	0.0800	0.0000	9.2500	PFind	None	0.00	0.00	None
17.8800	4.9568	0.0000	0.0000	177.50	0.95	0.1200	0.0000	14.2000	PFind	None	0.00	0.00	None
18.8200	4.7113	0.0000	0.0000	165.00	0.88	0.1200	0.0000	19.8000	PFind	None	0.00	0.00	None
20.9400	4.2388	0.0000	0.0000	610.00	3.27	0.0800	0.0000	73.2000	PFind	None	0.00	0.00	None
22.1000	4.0189	0.0000	0.0000	118.33	0.63	0.1200	0.0000	14.2000	PFind	None	0.00	0.00	None
23.5800	3.7699	0.0000	0.0000	107.50	0.58	0.1600	0.0000	8.6000	PFind	None	0.00	0.00	None
24.1400	3.6837	0.0000	0.0000	75.00	0.40	0.1000	0.0000	9.0000	PFind	None	0.00	0.00	None
24.6200	3.6129	0.0000	0.0000	103.33	0.55	0.1000	0.0000	14.4667	PFind	None	0.00	0.00	None
25.2600	3.5228	0.0000	0.0000	282.50	1.51	0.1600	0.0000	33.9000	PFind	None	0.00	0.00	None
25.6400	3.4715	0.0000	0.0000	217.50	1.17	0.1200	0.0000	17.4000	PFind	None	0.00	0.00	None
26.7200	3.3336	0.0000	0.0000	2944.17	15.79	0.0000	0.0000	353.3000	PFind	None	0.00	0.00	None
28.0000	3.1840	0.0000	0.0000	18650.00	100.00	0.0200	0.0000	746.0000	PFind	None	0.00	0.00	None
28.5400	3.1250	0.0000	0.0000	126.67	0.68	0.1200	0.0000	15.2000	PFind	None	0.00	0.00	None
29.9600	2.9800	0.0000	0.0000	86.67	0.46	0.1000	0.0000	10.4000	PFind	None	0.00	0.00	None
30.2400	2.9531	0.0000	0.0000	165.83	0.89	0.1400	0.0000	9.9500	PFind	None	0.00	0.00	None
30.5800	2.9210	0.0000	0.0000	89.17	0.48	0.1400	0.0000	7.1333	PFind	None	0.00	0.00	None
30.9800	2.8842	0.0000	0.0000	112.50	0.60	0.0400	0.0000	4.5000	PFind	None	0.00	0.00	None
31.3200	2.8537	0.0000	0.0000	50.00	0.27	0.1200	0.0000	8.0000	PFind	None	0.00	0.00	None
31.5800	2.8307	0.0000	0.0000	66.67	0.36	0.0600	0.0000	8.0000	PFind	None	0.00	0.00	None
35.6000	2.5198	0.0000	0.0000	103.33	0.55	0.1200	0.0000	10.3333	PFind	None	0.00	0.00	None
36.6000	2.4532	0.0000	0.0000	83.33	0.45	0.0600	0.0000	13.3333	PFind	None	0.00	0.00	None
37.5400	2.3939	0.0000	0.0000	52.50	0.28	0.0600	0.0000	4.2000	PFind	None	0.00	0.00	None
37.6400	2.3878	0.0000	0.0000	50.00	0.27	0.0600	0.0000	6.0000	PFind	None	0.00	0.00	None
38.1400	2.3576	0.0000	0.0000	178.33	0.96	0.0800	0.0000	24.9667	PFind	None	0.00	0.00	None
39.5200	2.2784	0.0000	0.0000	92.50	0.50	0.1200	0.0000	9.2500	PFind	None	0.00	0.00	None
40.3400	2.2339	0.0000	0.0000	60.83	0.33	0.0400	0.0000	3.6500	PFind	None	0.00	0.00	None
42.5000	2.1253	0.0000	0.0000	308.33	1.65	0.0800	0.0000	30.8333	PFind	None	0.00	0.00	None
44.3200	2.0421	0.0000	0.0000	116.67	0.63	0.0800	0.0000	14.0000	PFind	None	0.00	0.00	None
45.0000	2.0128	0.0000	0.0000	56.67	0.30	0.1600	0.0000	3.4000	PFind	None	0.00	0.00	None
45.6800	1.9844	0.0000	0.0000	200.00	1.07	0.1200	0.0000	32.0000	PFind	None	0.00	0.00	None
45.8800	1.9763	0.0000	0.0000	264.17	1.42	0.1200	0.0000	10.5667	PFind	None	0.00	0.00	None
47.7000	1.9050	0.0000	0.0000	69.17	0.37	0.1200	0.0000	8.3000	PFind	None	0.00	0.00	None
50.2200	1.8152	0.0000	0.0000	230.00	1.23	0.0600	0.0000	23.0000	PFind	None	0.00	0.00	None
50.7600	1.7971	0.0000	0.0000	52.50	0.28	0.0600	0.0000	7.3500	PFind	None	0.00	0.00	None
54.9600	1.6693	0.0000	0.0000	59.17	0.32	0.1400	0.0000	9.4667	PFind	None	0.00	0.00	None
56.1000	1.6381	0.0000	0.0000	48.33	0.26	0.0800	0.0000	2.9000	PFind	None	0.00	0.00	None
57.7400	1.5954	0.0000	0.0000	96.67	0.52	0.1600	0.0000	5.8000	PFind	None	0.00	0.00	None
57.9000	1.5913	0.0000	0.0000	59.17	0.32	0.1000	0.0000	4.7333	PFind	None	0.00	0.00	None
58.5800	1.5745	0.0000	0.0000	60.83	0.33	0.1600	0.0000	3.6500	PFind	None	0.00	0.00	None
60.0000	1.5406	0.0000	0.0000	144.17	0.77	0.1200	0.0000	17.3000	PFind	None	0.00	0.00	None
64.1200	1.4512	0.0000	0.0000	60.00	0.32	0.1200	0.0000	4.8000	PFind	None	0.00	0.00	None
64.4600	1.4443	0.0000	0.0000	117.50	0.63	0.0600	0.0000	18.8000	PFind	None	0.00	0.00	None