Folder: Non-Linear-XRD-Inversion/Generating XRD fingerprints/INPUT/Detrital data (part 62)

File: GG_19_pf_SFT.txt
Filename:
	C:\Program Files\Thermo Electron\WinXRD\Datafiles\FIEN2\GEO\GG_19_SFT.pk

File Created:
	February 25, 2021 - 10:27 AM

Specimen Id:
	GG_19_SFT

Specimen Name:

Specimen Description:

Comment:
Scan Type: 2Theta Scan
Start Angle: 3 deg.
Stop Angle: 65 deg.
Num Points: 3101
Step Size: 0.02 deg.
Scan Rate: 1.000000
Scan Mode: Continuous
Wavelength: 1.540562
\Kalpha1: 1.540562	\Kalpha2: 1.544390	\Kbeta: 1.392218

Optics:
		Detector:
			 Type: Fixed Slits
		Tube:
			 Type: Fixed Slits

Datas:
Peaks:

Position        Dspace          ESD(P)          Corr.Fact       Intensity       Rel.Int.        FWHM(L)         ESD(L)          Area            Source                  Curve           Strain  CSize   CSize_Source
[deg]           [A]             [deg]           [deg]           [CPS]           [CPS]           [deg]           [deg]           [deg]           [--]                    [--]            [--]    [--]    [--]
  4.7400        18.6272           0.0000          0.0000            50.83         3.27          0.1200            0.0000           1.0167       PFind                   None            0.00    0.00    None
  5.3000        16.6602           0.0000          0.0000            30.83         1.98          0.1200            0.0000           3.0833       PFind                   None            0.00    0.00    None
  6.0800        14.5245           0.0000          0.0000           115.00         7.40          0.1200            0.0000          18.4000       PFind                   None            0.00    0.00    None
  6.7800        13.0264           0.0000          0.0000            60.00         3.86          0.1000            0.0000           0.0000       PFind                   None            0.00    0.00    None
  7.6400        11.5619           0.0000          0.0000            36.67         2.36          0.0200            0.0000           1.4667       PFind                   None            0.00    0.00    None
  8.3200        10.6184           0.0000          0.0000            40.83         2.63          0.1200            0.0000           4.9000       PFind                   None            0.00    0.00    None
  9.9200         8.9091           0.0000          0.0000            31.67         2.04          0.1200            0.0000           2.5333       PFind                   None            0.00    0.00    None
 10.4200         8.4827           0.0000          0.0000            33.33         2.14          0.1200            0.0000           1.3333       PFind                   None            0.00    0.00    None
 10.9600         8.0659           0.0000          0.0000            28.33         1.82          0.0800            0.0000           0.0000       PFind                   None            0.00    0.00    None
 11.6800         7.5703           0.0000          0.0000            34.17         2.20          0.1200            0.0000           0.0000       PFind                   None            0.00    0.00    None
 12.6200         7.0084           0.0000          0.0000           323.33        20.80          0.1000            0.0000          38.8000       PFind                   None            0.00    0.00    None
 13.6200         6.4960           0.0000          0.0000            22.50         1.45          0.0800            0.0000           0.0000       PFind                   None            0.00    0.00    None
 14.6000         6.0621           0.0000          0.0000            25.00         1.61          0.0000            0.0000           0.0000       PFind                   None            0.00    0.00    None
 15.8000         5.6043           0.0000          0.0000            26.67         1.72          0.0400            0.0000           0.0000       PFind                   None            0.00    0.00    None
 17.9400         4.9403           0.0000          0.0000           214.17        13.78          0.0400            0.0000          21.4167       PFind                   None            0.00    0.00    None
 19.4400         4.5624           0.0000          0.0000            25.83         1.66          0.0800            0.0000           0.0000       PFind                   None            0.00    0.00    None
 20.7200         4.2833           0.0000          0.0000            32.50         2.09          0.1000            0.0000           0.0000       PFind                   None            0.00    0.00    None
 22.5800         3.9345           0.0000          0.0000            25.00         1.61          0.0800            0.0000           1.5000       PFind                   None            0.00    0.00    None
 23.6800         3.7542           0.0000          0.0000           114.17         7.35          0.0000            0.0000          18.2667       PFind                   None            0.00    0.00    None
 24.7400         3.5957           0.0000          0.0000           264.17        17.00          0.1600            0.0000          42.2667       PFind                   None            0.00    0.00    None
 26.7800         3.3262           0.0000          0.0000          1554.17       100.00          0.0200            0.0000         186.5000       PFind                   None            0.00    0.00    None
 27.6200         3.2269           0.0000          0.0000           131.67         8.47          0.0400            0.0000          15.8000       PFind                   None            0.00    0.00    None
 28.7200         3.1058           0.0000          0.0000           102.50         6.60          0.0000            0.0000          12.3000       PFind                   None            0.00    0.00    None
 30.6000         2.9191           0.0000          0.0000            91.67         5.90          0.0000            0.0000          11.0000       PFind                   None            0.00    0.00    None
 31.6600         2.8238           0.0000          0.0000            48.33         3.11          0.1000            0.0000           7.7333       PFind                   None            0.00    0.00    None
 33.1400         2.7010           0.0000          0.0000            54.17         3.49          0.1400            0.0000           4.3333       PFind                   None            0.00    0.00    None
 34.7000         2.5830           0.0000          0.0000            61.67         3.97          0.1200            0.0000           4.9333       PFind                   None            0.00    0.00    None
 35.6800         2.5143           0.0000          0.0000            87.50         5.63          0.0000            0.0000          14.0000       PFind                   None            0.00    0.00    None
 37.0600         2.4238           0.0000          0.0000            23.33         1.50          0.1000            0.0000           0.9333       PFind                   None            0.00    0.00    None
 38.7800         2.3201           0.0000          0.0000            29.17         1.88          0.0400            0.0000           4.0833       PFind                   None            0.00    0.00    None
 39.6800         2.2696           0.0000          0.0000            55.00         3.54          0.1600            0.0000           8.8000       PFind                   None            0.00    0.00    None
 41.3400         2.1822           0.0000          0.0000            38.33         2.47          0.0600            0.0000           1.5333       PFind                   None            0.00    0.00    None
 42.1200         2.1436           0.0000          0.0000            45.00         2.90          0.1200            0.0000           3.6000       PFind                   None            0.00    0.00    None
 43.9200         2.0598           0.0000          0.0000            23.33         1.50          0.0200            0.0000           2.3333       PFind                   None            0.00    0.00    None
 45.6400         1.9861           0.0000          0.0000           232.50        14.96          0.0800            0.0000          37.2000       PFind                   None            0.00    0.00    None
 47.2600         1.9217           0.0000          0.0000            55.00         3.54          0.1400            0.0000           6.6000       PFind                   None            0.00    0.00    None
 48.3800         1.8798           0.0000          0.0000            46.67         3.00          0.1200            0.0000           4.6667       PFind                   None            0.00    0.00    None
 49.9000         1.8261           0.0000          0.0000            32.50         2.09          0.1400            0.0000           1.3000       PFind                   None            0.00    0.00    None
 50.7000         1.7991           0.0000          0.0000            63.33         4.08          0.0000            0.0000           7.6000       PFind                   None            0.00    0.00    None
 52.3000         1.7478           0.0000          0.0000            37.50         2.41          0.0800            0.0000           3.0000       PFind                   None            0.00    0.00    None
 53.2000         1.7203           0.0000          0.0000            24.17         1.55          0.1200            0.0000           0.9667       PFind                   None            0.00    0.00    None
 54.7200         1.6761           0.0000          0.0000            26.67         1.72          0.0400            0.0000           1.0667       PFind                   None            0.00    0.00    None
 55.5600         1.6527           0.0000          0.0000            77.50         4.99          0.0400            0.0000           6.2000       PFind                   None            0.00    0.00    None
 59.1000         1.5619           0.0000          0.0000            23.33         1.50          0.0400            0.0000           3.7333       PFind                   None            0.00    0.00    None
 60.0600         1.5392           0.0000          0.0000           166.67        10.72          0.0600            0.0000          16.6667       PFind                   None            0.00    0.00    None
 60.7400         1.5236           0.0000          0.0000            25.00         1.61          0.1600            0.0000           1.0000       PFind                   None            0.00    0.00    None
 61.1600         1.5141           0.0000          0.0000            25.83         1.66          0.0800            0.0000           2.5833       PFind                   None            0.00    0.00    None
 62.0200         1.4951           0.0000          0.0000            30.83         1.98          0.1000            0.0000           3.7000       PFind                   None            0.00    0.00    None
 64.3000         1.4475           0.0000          0.0000            31.67         2.04          0.0200            0.0000           1.9000       PFind                   None            0.00    0.00    None

File: GG_20_pf_SFT.txt
Filename:
	C:\Program Files\Thermo Electron\WinXRD\Datafiles\FIEN2\GEO\GG_20_SFT.pk

File Created:
	February 25, 2021 - 10:28 AM

Specimen Id:
	GG_20_SFT

Specimen Name:

Specimen Description:

Comment:
Scan Type: 2Theta Scan
Start Angle: 3 deg.
Stop Angle: 65 deg.
Num Points: 3101
Step Size: 0.02 deg.
Scan Rate: 1.000000
Scan Mode: Continuous
Wavelength: 1.540562
\Kalpha1: 1.540562	\Kalpha2: 1.544390	\Kbeta: 1.392218

Optics:
		Detector:
			 Type: Fixed Slits
		Tube:
			 Type: Fixed Slits

Datas:
Peaks:

Position        Dspace          ESD(P)          Corr.Fact       Intensity       Rel.Int.        FWHM(L)         ESD(L)          Area            Source                  Curve           Strain  CSize   CSize_Source
[deg]           [A]             [deg]           [deg]           [CPS]           [CPS]           [deg]           [deg]           [deg]           [--]                    [--]            [--]    [--]    [--]
  4.6800        18.8659           0.0000          0.0000            50.83         3.58          0.1600            0.0000           0.0000       PFind                   None            0.00    0.00    None
  5.3200        16.5976           0.0000          0.0000            50.00         3.52          0.1400            0.0000           1.0000       PFind                   None            0.00    0.00    None
  6.3200        13.9735           0.0000          0.0000           152.50        10.73          0.0200            0.0000          15.2500       PFind                   None            0.00    0.00    None
  7.1200        12.4051           0.0000          0.0000            40.83         2.87          0.0400            0.0000           0.8167       PFind                   None            0.00    0.00    None
  7.6800        11.5018           0.0000          0.0000            33.33         2.35          0.1200            0.0000           0.6667       PFind                   None            0.00    0.00    None
  8.9200         9.9055           0.0000          0.0000           577.50        40.65          0.0200            0.0000          69.3000       PFind                   None            0.00    0.00    None
  9.9200         8.9091           0.0000          0.0000            40.83         2.87          0.0600            0.0000           0.8167       PFind                   None            0.00    0.00    None
 11.4200         7.7420           0.0000          0.0000            25.83         1.82          0.0800            0.0000           1.0333       PFind                   None            0.00    0.00    None
 12.5600         7.0418           0.0000          0.0000           483.33        34.02          0.1000            0.0000          48.3333       PFind                   None            0.00    0.00    None
 13.3800         6.6120           0.0000          0.0000            31.67         2.23          0.1400            0.0000           2.5333       PFind                   None            0.00    0.00    None
 15.9200         5.5623           0.0000          0.0000            36.67         2.58          0.1000            0.0000           2.2000       PFind                   None            0.00    0.00    None
 18.8400         4.7063           0.0000          0.0000           209.17        14.72          0.0600            0.0000          16.7333       PFind                   None            0.00    0.00    None
 19.9000         4.4579           0.0000          0.0000            93.33         6.57          0.1000            0.0000          11.2000       PFind                   None            0.00    0.00    None
 21.6400         4.1033           0.0000          0.0000            30.83         2.17          0.1200            0.0000           1.2333       PFind                   None            0.00    0.00    None
 23.0000         3.8636           0.0000          0.0000            71.67         5.04          0.0200            0.0000           7.1667       PFind                   None            0.00    0.00    None
 24.3600         3.6509           0.0000          0.0000           120.00         8.45          0.1400            0.0000           9.6000       PFind                   None            0.00    0.00    None
 25.5400         3.4848           0.0000          0.0000           148.33        10.44          0.0200            0.0000          23.7333       PFind                   None            0.00    0.00    None
 27.5600         3.2338           0.0000          0.0000           145.83        10.26          0.0800            0.0000          17.5000       PFind                   None            0.00    0.00    None
 28.7000         3.1079           0.0000          0.0000           142.50        10.03          0.1000            0.0000          22.8000       PFind                   None            0.00    0.00    None
 30.4000         2.9379           0.0000          0.0000            72.50         5.10          0.0000            0.0000           5.8000       PFind                   None            0.00    0.00    None
 31.3000         2.8554           0.0000          0.0000           145.83        10.26          0.0600            0.0000          20.4167       PFind                   None            0.00    0.00    None
 32.2800         2.7709           0.0000          0.0000            85.83         6.04          0.0800            0.0000          12.0167       PFind                   None            0.00    0.00    None
 34.1600         2.6226           0.0000          0.0000            34.17         2.40          0.0800            0.0000           0.6833       PFind                   None            0.00    0.00    None
 35.6000         2.5198           0.0000          0.0000           138.33         9.74          0.0000            0.0000          16.6000       PFind                   None            0.00    0.00    None
 37.4800         2.3976           0.0000          0.0000            60.00         4.22          0.1600            0.0000           8.4000       PFind                   None            0.00    0.00    None
 38.7200         2.3236           0.0000          0.0000            35.00         2.46          0.0600            0.0000           2.8000       PFind                   None            0.00    0.00    None
 39.9400         2.2554           0.0000          0.0000            28.33         1.99          0.0600            0.0000           2.2667       PFind                   None            0.00    0.00    None
 41.7800         2.1602           0.0000          0.0000            57.50         4.05          0.1400            0.0000           9.2000       PFind                   None            0.00    0.00    None
 42.9600         2.1036           0.0000          0.0000            31.67         2.23          0.0600            0.0000           1.2667       PFind                   None            0.00    0.00    None
 44.1000         2.0518           0.0000          0.0000            28.33         1.99          0.1200            0.0000           0.0000       PFind                   None            0.00    0.00    None
 46.1600         1.9649           0.0000          0.0000            41.67         2.93          0.0000            0.0000           3.3333       PFind                   None            0.00    0.00    None
 48.3600         1.8805           0.0000          0.0000            71.67         5.04          0.1200            0.0000           5.7333       PFind                   None            0.00    0.00    None
 50.1800         1.8165           0.0000          0.0000           245.00        17.24          0.0000            0.0000          24.5000       PFind                   None            0.00    0.00    None
 51.1600         1.7840           0.0000          0.0000            52.50         3.70          0.1200            0.0000           4.2000       PFind                   None            0.00    0.00    None
 52.6000         1.7385           0.0000          0.0000            33.33         2.35          0.0000            0.0000           4.0000       PFind                   None            0.00    0.00    None
 53.7000         1.7055           0.0000          0.0000            29.17         2.05          0.0000            0.0000           0.5833       PFind                   None            0.00    0.00    None
 54.6600         1.6778           0.0000          0.0000            30.00         2.11          0.0400            0.0000           0.6000       PFind                   None            0.00    0.00    None
 55.9000         1.6434           0.0000          0.0000            88.33         6.22          0.0800            0.0000          14.1333       PFind                   None            0.00    0.00    None
 59.2200         1.5590           0.0000          0.0000            33.33         2.35          0.1600            0.0000           3.3333       PFind                   None            0.00    0.00    None
 60.7200         1.5240           0.0000          0.0000            25.83         1.82          0.0000            0.0000           1.5500       PFind                   None            0.00    0.00    None
 61.5400         1.5057           0.0000          0.0000            50.00         3.52          0.1400            0.0000           8.0000       PFind                   None            0.00    0.00    None
 62.1200         1.4930           0.0000          0.0000            34.17         2.40          0.1600            0.0000           4.1000       PFind                   None            0.00    0.00    None
 63.7800         1.4581           0.0000          0.0000            34.17         2.40          0.0000            0.0000           1.3667       PFind                   None            0.00    0.00    None
 64.1800         1.4499           0.0000          0.0000            34.17         2.40          0.0800            0.0000           2.7333       PFind                   None            0.00    0.00    None