Folder: Non-Linear-XRD-Inversion/Generating XRD fingerprints/INPUT/Detrital data (part 63)

File: GG_21_pf_SFT.txt
Filename:
	C:\Program Files\Thermo Electron\WinXRD\Datafiles\FIEN2\GEO\GG_21_SFT.pk

File Created:
	February 25, 2021 - 10:29 AM

Specimen Id:
	GG_21_SFT

Specimen Name:

Specimen Description:

Comment:
Scan Type: 2Theta Scan
Start Angle: 3 deg.
Stop Angle: 65 deg.
Num Points: 3101
Step Size: 0.02 deg.
Scan Rate: 1.000000
Scan Mode: Continuous
Wavelength: 1.540562
\Kalpha1: 1.540562	\Kalpha2: 1.544390	\Kbeta: 1.392218

Optics:
		Detector:
			 Type: Fixed Slits
		Tube:
			 Type: Fixed Slits

Datas:
Peaks:

Position        Dspace          ESD(P)          Corr.Fact       Intensity       Rel.Int.        FWHM(L)         ESD(L)          Area            Source                  Curve           Strain  CSize   CSize_Source
[deg]           [A]             [deg]           [deg]           [CPS]           [CPS]           [deg]           [deg]           [deg]           [--]                    [--]            [--]    [--]    [--]
  4.7000        18.7856           0.0000          0.0000            45.00         4.84          0.0400            0.0000           3.6000       PFind                   None            0.00    0.00    None
  5.2200        16.9154           0.0000          0.0000            50.00         5.38          0.1600            0.0000           2.0000       PFind                   None            0.00    0.00    None
  5.8000        15.2251           0.0000          0.0000            50.83         5.47          0.1400            0.0000           0.0000       PFind                   None            0.00    0.00    None
  6.7800        13.0264           0.0000          0.0000            32.50         3.50          0.1600            0.0000           2.6000       PFind                   None            0.00    0.00    None
  7.2000        12.2675           0.0000          0.0000            30.83         3.32          0.0400            0.0000           1.8500       PFind                   None            0.00    0.00    None
  7.8000        11.3251           0.0000          0.0000            27.50         2.96          0.1200            0.0000           0.5500       PFind                   None            0.00    0.00    None
  8.9600         9.8614           0.0000          0.0000           393.33        42.33          0.0000            0.0000          62.9333       PFind                   None            0.00    0.00    None
  9.8000         9.0179           0.0000          0.0000            31.67         3.41          0.0800            0.0000           1.9000       PFind                   None            0.00    0.00    None
 11.8200         7.4809           0.0000          0.0000            37.50         4.04          0.1200            0.0000           0.7500       PFind                   None            0.00    0.00    None
 13.1400         6.7322           0.0000          0.0000            31.67         3.41          0.0600            0.0000           3.1667       PFind                   None            0.00    0.00    None
 14.2600         6.2059           0.0000          0.0000            24.17         2.60          0.0000            0.0000           2.4167       PFind                   None            0.00    0.00    None
 15.0600         5.8780           0.0000          0.0000            41.67         4.48          0.1600            0.0000           3.3333       PFind                   None            0.00    0.00    None
 18.1200         4.8916           0.0000          0.0000            25.83         2.78          0.1200            0.0000           0.5167       PFind                   None            0.00    0.00    None
 19.3400         4.5857           0.0000          0.0000            29.17         3.14          0.0800            0.0000           2.3333       PFind                   None            0.00    0.00    None
 20.9400         4.2388           0.0000          0.0000           186.67        20.09          0.0200            0.0000          18.6667       PFind                   None            0.00    0.00    None
 23.0000         3.8636           0.0000          0.0000            60.00         6.46          0.1600            0.0000           9.6000       PFind                   None            0.00    0.00    None
 24.3800         3.6480           0.0000          0.0000            94.17        10.13          0.1600            0.0000          15.0667       PFind                   None            0.00    0.00    None
 25.6200         3.4741           0.0000          0.0000            93.33        10.04          0.1000            0.0000          14.9333       PFind                   None            0.00    0.00    None
 26.9400         3.3068           0.0000          0.0000           580.00        62.42          0.0400            0.0000          92.8000       PFind                   None            0.00    0.00    None
 28.7000         3.1079           0.0000          0.0000           185.83        20.00          0.0600            0.0000          29.7333       PFind                   None            0.00    0.00    None
 30.2800         2.9493           0.0000          0.0000            69.17         7.44          0.1200            0.0000          11.0667       PFind                   None            0.00    0.00    None
 30.9400         2.8878           0.0000          0.0000            42.50         4.57          0.1400            0.0000           5.9500       PFind                   None            0.00    0.00    None
 32.0600         2.7895           0.0000          0.0000            64.17         6.91          0.0200            0.0000          10.2667       PFind                   None            0.00    0.00    None
 33.1600         2.6994           0.0000          0.0000            67.50         7.26          0.1600            0.0000           8.1000       PFind                   None            0.00    0.00    None
 34.6600         2.5859           0.0000          0.0000            70.00         7.53          0.1400            0.0000          11.2000       PFind                   None            0.00    0.00    None
 36.1800         2.4807           0.0000          0.0000            60.00         6.46          0.1400            0.0000           7.2000       PFind                   None            0.00    0.00    None
 37.5400         2.3939           0.0000          0.0000            62.50         6.73          0.1600            0.0000          10.0000       PFind                   None            0.00    0.00    None
 38.7000         2.3248           0.0000          0.0000            29.17         3.14          0.0600            0.0000           2.9167       PFind                   None            0.00    0.00    None
 39.5400         2.2773           0.0000          0.0000            66.67         7.17          0.1600            0.0000           8.0000       PFind                   None            0.00    0.00    None
 40.8200         2.2088           0.0000          0.0000            26.67         2.87          0.0200            0.0000           0.0000       PFind                   None            0.00    0.00    None
 41.8000         2.1592           0.0000          0.0000            60.83         6.55          0.1600            0.0000           9.7333       PFind                   None            0.00    0.00    None
 42.5200         2.1243           0.0000          0.0000            91.67         9.87          0.0200            0.0000           7.3333       PFind                   None            0.00    0.00    None
 43.6400         2.0724           0.0000          0.0000            24.17         2.60          0.0400            0.0000           0.9667       PFind                   None            0.00    0.00    None
 46.0200         1.9706           0.0000          0.0000            44.17         4.75          0.1600            0.0000           4.4167       PFind                   None            0.00    0.00    None
 48.3000         1.8827           0.0000          0.0000            50.00         5.38          0.1600            0.0000           7.0000       PFind                   None            0.00    0.00    None
 49.3800         1.8441           0.0000          0.0000            26.67         2.87          0.1600            0.0000           1.0667       PFind                   None            0.00    0.00    None
 50.6600         1.8004           0.0000          0.0000            52.50         5.65          0.1600            0.0000           4.2000       PFind                   None            0.00    0.00    None
 52.3000         1.7478           0.0000          0.0000            24.17         2.60          0.0600            0.0000           1.9333       PFind                   None            0.00    0.00    None
 53.1600         1.7215           0.0000          0.0000            29.17         3.14          0.0800            0.0000           0.5833       PFind                   None            0.00    0.00    None
 54.4200         1.6846           0.0000          0.0000            26.67         2.87          0.1600            0.0000           0.0000       PFind                   None            0.00    0.00    None
 55.2000         1.6626           0.0000          0.0000            28.33         3.05          0.0400            0.0000           3.4000       PFind                   None            0.00    0.00    None
 56.1400         1.6370           0.0000          0.0000            36.67         3.95          0.0600            0.0000           5.8667       PFind                   None            0.00    0.00    None
 58.6600         1.5725           0.0000          0.0000            29.17         3.14          0.1200            0.0000           1.1667       PFind                   None            0.00    0.00    None
 59.3600         1.5556           0.0000          0.0000            34.17         3.68          0.0800            0.0000           0.6833       PFind                   None            0.00    0.00    None
 60.5000         1.5290           0.0000          0.0000            25.00         2.69          0.0200            0.0000           0.0000       PFind                   None            0.00    0.00    None
 61.1000         1.5154           0.0000          0.0000            50.00         5.38          0.1600            0.0000           1.0000       PFind                   None            0.00    0.00    None
 61.6000         1.5043           0.0000          0.0000            51.67         5.56          0.1600            0.0000           5.1667       PFind                   None            0.00    0.00    None
 62.8600         1.4772           0.0000          0.0000            25.00         2.69          0.0800            0.0000           1.5000       PFind                   None            0.00    0.00    None
 64.4000         1.4455           0.0000          0.0000            24.17         2.60          0.0400            0.0000           0.0000       PFind                   None            0.00    0.00    None

File: GG_22_pf_SFT.txt
Filename:
	C:\Program Files\Thermo Electron\WinXRD\Datafiles\FIEN2\GEO\GG_22_SFT.pk

File Created:
	February 25, 2021 - 10:30 AM

Specimen Id:
	GG 22 SFT

Specimen Name:

Specimen Description:

Comment:
Scan Type: 2Theta Scan
Start Angle: 3 deg.
Stop Angle: 65 deg.
Num Points: 3101
Step Size: 0.02 deg.
Scan Rate: 1.000000
Scan Mode: Continuous
Wavelength: 1.540562
\Kalpha1: 1.540562	\Kalpha2: 1.544390	\Kbeta: 1.392218

Optics:
		Detector:
			 Type: Fixed Slits
		Tube:
			 Type: Fixed Slits

Datas:
Peaks:

Position        Dspace          ESD(P)          Corr.Fact       Intensity       Rel.Int.        FWHM(L)         ESD(L)          Area            Source                  Curve           Strain  CSize   CSize_Source
[deg]           [A]             [deg]           [deg]           [CPS]           [CPS]           [deg]           [deg]           [deg]           [--]                    [--]            [--]    [--]    [--]
 19.5200         4.5439           0.0000          0.0000            25.00         2.12          0.0400            0.0000           0.5000       PFind                   None            0.00    0.00    None
 41.0400         2.1974           0.0000          0.0000            25.00         2.12          0.1600            0.0000           1.0000       PFind                   None            0.00    0.00    None
 58.9200         1.5662           0.0000          0.0000            25.00         2.12          0.0600            0.0000           2.0000       PFind                   None            0.00    0.00    None
 34.1200         2.6256           0.0000          0.0000            26.67         2.26          0.1000            0.0000           2.6667       PFind                   None            0.00    0.00    None
 58.7800         1.5696           0.0000          0.0000            26.67         2.26          0.0200            0.0000           1.0667       PFind                   None            0.00    0.00    None
 52.8600         1.7306           0.0000          0.0000            27.50         2.33          0.1200            0.0000           0.5500       PFind                   None            0.00    0.00    None
 39.1000         2.3019           0.0000          0.0000            28.33         2.40          0.0800            0.0000           0.5667       PFind                   None            0.00    0.00    None
 47.4200         1.9156           0.0000          0.0000            29.17         2.47          0.0200            0.0000           2.9167       PFind                   None            0.00    0.00    None
 26.1200         3.4088           0.0000          0.0000            30.00         2.54          0.1600            0.0000           0.0000       PFind                   None            0.00    0.00    None
 13.4200         6.5924           0.0000          0.0000            30.83         2.61          0.0600            0.0000           0.6167       PFind                   None            0.00    0.00    None
  7.2600        12.1662           0.0000          0.0000            31.67         2.69          0.0400            0.0000           5.0667       PFind                   None            0.00    0.00    None
 59.5400         1.5514           0.0000          0.0000            31.67         2.69          0.1400            0.0000           0.6333       PFind                   None            0.00    0.00    None
 43.0800         2.0980           0.0000          0.0000            32.50         2.76          0.1600            0.0000           2.6000       PFind                   None            0.00    0.00    None
 55.5000         1.6543           0.0000          0.0000            32.50         2.76          0.0800            0.0000           3.9000       PFind                   None            0.00    0.00    None
 37.1800         2.4162           0.0000          0.0000            33.33         2.83          0.0600            0.0000           2.0000       PFind                   None            0.00    0.00    None
 61.9200         1.4973           0.0000          0.0000            34.17         2.90          0.0200            0.0000           5.4667       PFind                   None            0.00    0.00    None
  8.3400        10.5930           0.0000          0.0000            35.00         2.97          0.0600            0.0000           2.1000       PFind                   None            0.00    0.00    None
 11.8400         7.4683           0.0000          0.0000            35.83         3.04          0.0800            0.0000           0.0000       PFind                   None            0.00    0.00    None
  5.0000        17.6591           0.0000          0.0000            37.50         3.18          0.1000            0.0000           1.5000       PFind                   None            0.00    0.00    None
 46.2200         1.9625           0.0000          0.0000            40.00         3.39          0.0600            0.0000           6.4000       PFind                   None            0.00    0.00    None
 38.8000         2.3190           0.0000          0.0000            41.67         3.53          0.1600            0.0000           4.1667       PFind                   None            0.00    0.00    None
 53.3800         1.7149           0.0000          0.0000            42.50         3.60          0.1600            0.0000           5.9500       PFind                   None            0.00    0.00    None
  4.7600        18.5490           0.0000          0.0000            48.33         4.10          0.1200            0.0000           0.0000       PFind                   None            0.00    0.00    None
 61.0000         1.5177           0.0000          0.0000            50.83         4.31          0.1600            0.0000           3.0500       PFind                   None            0.00    0.00    None
 48.3000         1.8827           0.0000          0.0000            52.50         4.45          0.1200            0.0000           5.2500       PFind                   None            0.00    0.00    None
 59.3400         1.5561           0.0000          0.0000            55.00         4.66          0.0000            0.0000           4.4000       PFind                   None            0.00    0.00    None
 50.7400         1.7978           0.0000          0.0000            56.67         4.81          0.1400            0.0000           6.8000       PFind                   None            0.00    0.00    None
 45.1000         2.0086           0.0000          0.0000            58.33         4.95          0.1600            0.0000           9.3333       PFind                   None            0.00    0.00    None
 31.0200         2.8806           0.0000          0.0000            61.67         5.23          0.1600            0.0000           3.7000       PFind                   None            0.00    0.00    None
 23.0600         3.8537           0.0000          0.0000            62.50         5.30          0.1200            0.0000           5.0000       PFind                   None            0.00    0.00    None
 51.3600         1.7775           0.0000          0.0000            64.17         5.44          0.0800            0.0000          10.2667       PFind                   None            0.00    0.00    None
 18.7800         4.7212           0.0000          0.0000            70.83         6.01          0.1000            0.0000           9.9167       PFind                   None            0.00    0.00    None
 34.8000         2.5758           0.0000          0.0000            79.17         6.71          0.0200            0.0000           6.3333       PFind                   None            0.00    0.00    None
 41.9000         2.1543           0.0000          0.0000            85.83         7.28          0.1200            0.0000          10.3000       PFind                   None            0.00    0.00    None
 39.6200         2.2729           0.0000          0.0000            99.17         8.41          0.1200            0.0000           7.9333       PFind                   None            0.00    0.00    None
 35.1800         2.5489           0.0000          0.0000           104.17         8.83          0.0200            0.0000          16.6667       PFind                   None            0.00    0.00    None
 36.7400         2.4442           0.0000          0.0000           124.17        10.53          0.0000            0.0000          17.3833       PFind                   None            0.00    0.00    None
 42.6000         2.1205           0.0000          0.0000           130.00        11.02          0.0600            0.0000          15.6000       PFind                   None            0.00    0.00    None
 60.1000         1.5382           0.0000          0.0000           142.50        12.08          0.1200            0.0000          14.2500       PFind                   None            0.00    0.00    None
 28.8000         3.0974           0.0000          0.0000           168.33        14.28          0.1000            0.0000          26.9333       PFind                   None            0.00    0.00    None
  6.4000        13.7990           0.0000          0.0000           189.17        16.04          0.0000            0.0000          30.2667       PFind                   None            0.00    0.00    None
 21.0400         4.2189           0.0000          0.0000           218.33        18.52          0.0000            0.0000          21.8333       PFind                   None            0.00    0.00    None
 50.3000         1.8125           0.0000          0.0000           274.17        23.25          0.1600            0.0000          16.4500       PFind                   None            0.00    0.00    None
  9.0600         9.7527           0.0000          0.0000           485.83        41.20          0.0800            0.0000          58.3000       PFind                   None            0.00    0.00    None
 12.6600         6.9864           0.0000          0.0000           565.83        47.99          0.0400            0.0000          79.2167       PFind                   None            0.00    0.00    None
 26.8200         3.3214           0.0000          0.0000          1179.17       100.00          0.0200            0.0000         141.5000       PFind                   None            0.00    0.00    None