Folder: Non-Linear-XRD-Inversion/Generating XRD fingerprints/INPUT/Detrital data (part 37)

File: G48A_pf_FT.txt
Filename:
	C:\Program Files\Thermo Electron\WinXRD\Datafiles\FIEN2\FIEN\G48A_FT.pk

File Created:
	February 25, 2021 - 10:50 AM

Specimen Id:
	G48A FT

Specimen Name:

Specimen Description:

Comment:
Scan Type: 2Theta Scan
Start Angle: 1 deg.
Stop Angle: 65 deg.
Num Points: 3201
Step Size: 0.02 deg.
Scan Rate: 1.000000
Scan Mode: Continuous
Wavelength: 1.540562
\Kalpha1: 1.540562	\Kalpha2: 1.544390	\Kbeta: 1.392218

Optics:
		Detector:
			 Type: Fixed Slits
		Tube:
			 Type: Fixed Slits

Datas:
Peaks:

Position        Dspace          ESD(P)          Corr.Fact       Intensity       Rel.Int.        FWHM(L)         ESD(L)          Area            Source                  Curve           Strain  CSize   CSize_Source
[deg]           [A]             [deg]           [deg]           [CPS]           [CPS]           [deg]           [deg]           [deg]           [--]                    [--]            [--]    [--]    [--]
  2.9600        29.8235           0.0000          0.0000          7141.67       100.00          0.0400            0.0000         285.6667       PFind                   None            0.00    0.00    None
  4.2400        20.8226           0.0000          0.0000           328.33         4.60          0.1600            0.0000           0.0000       PFind                   None            0.00    0.00    None
  5.8600        15.0693           0.0000          0.0000           156.67         2.19          0.0000            0.0000          25.0667       PFind                   None            0.00    0.00    None
  6.5400        13.5039           0.0000          0.0000           128.33         1.80          0.1600            0.0000           0.0000       PFind                   None            0.00    0.00    None
  7.2000        12.2675           0.0000          0.0000            60.83         0.85          0.1200            0.0000           7.3000       PFind                   None            0.00    0.00    None
  7.6800        11.5018           0.0000          0.0000            45.83         0.64          0.1000            0.0000           1.8333       PFind                   None            0.00    0.00    None
  8.2400        10.7213           0.0000          0.0000            55.00         0.77          0.1600            0.0000           4.4000       PFind                   None            0.00    0.00    None
  9.3200         9.4812           0.0000          0.0000            66.67         0.93          0.1000            0.0000          10.6667       PFind                   None            0.00    0.00    None
  9.9800         8.8557           0.0000          0.0000            59.17         0.83          0.1600            0.0000           3.5500       PFind                   None            0.00    0.00    None
 10.8000         8.1850           0.0000          0.0000            39.17         0.55          0.0200            0.0000           0.0000       PFind                   None            0.00    0.00    None
 11.4400         7.7285           0.0000          0.0000            45.00         0.63          0.1600            0.0000           0.9000       PFind                   None            0.00    0.00    None
 12.7400         6.9427           0.0000          0.0000            29.17         0.41          0.0400            0.0000           0.5833       PFind                   None            0.00    0.00    None
 13.4600         6.5729           0.0000          0.0000            41.67         0.58          0.0600            0.0000           5.0000       PFind                   None            0.00    0.00    None
 14.8400         5.9646           0.0000          0.0000            36.67         0.51          0.1600            0.0000           0.0000       PFind                   None            0.00    0.00    None
 16.9800         5.2174           0.0000          0.0000            73.33         1.03          0.0800            0.0000           5.8667       PFind                   None            0.00    0.00    None
 20.9800         4.2308           0.0000          0.0000            58.33         0.82          0.1600            0.0000           7.0000       PFind                   None            0.00    0.00    None
 22.8200         3.8937           0.0000          0.0000            37.50         0.53          0.1600            0.0000           3.0000       PFind                   None            0.00    0.00    None
 24.0400         3.6988           0.0000          0.0000           162.50         2.28          0.0600            0.0000          22.7500       PFind                   None            0.00    0.00    None
 26.7200         3.3336           0.0000          0.0000            82.50         1.16          0.1600            0.0000           9.9000       PFind                   None            0.00    0.00    None
 28.2800         3.1531           0.0000          0.0000           209.17         2.93          0.1400            0.0000          33.4667       PFind                   None            0.00    0.00    None
 30.7000         2.9099           0.0000          0.0000           118.33         1.66          0.0800            0.0000          18.9333       PFind                   None            0.00    0.00    None
 32.9800         2.7137           0.0000          0.0000           138.33         1.94          0.0800            0.0000          22.1333       PFind                   None            0.00    0.00    None
 33.9000         2.6421           0.0000          0.0000            76.67         1.07          0.0200            0.0000           6.1333       PFind                   None            0.00    0.00    None
 35.0000         2.5616           0.0000          0.0000            59.17         0.83          0.0800            0.0000           9.4667       PFind                   None            0.00    0.00    None
 37.5600         2.3927           0.0000          0.0000           137.50         1.93          0.0200            0.0000          13.7500       PFind                   None            0.00    0.00    None
 39.6600         2.2707           0.0000          0.0000           189.17         2.65          0.1600            0.0000          30.2667       PFind                   None            0.00    0.00    None
 41.6800         2.1652           0.0000          0.0000            36.67         0.51          0.1600            0.0000           1.4667       PFind                   None            0.00    0.00    None
 43.0800         2.0980           0.0000          0.0000            30.83         0.43          0.1600            0.0000           0.6167       PFind                   None            0.00    0.00    None
 45.2600         2.0019           0.0000          0.0000            35.00         0.49          0.1200            0.0000           1.4000       PFind                   None            0.00    0.00    None
 46.6600         1.9450           0.0000          0.0000            30.00         0.42          0.1200            0.0000           0.6000       PFind                   None            0.00    0.00    None
 48.7200         1.8675           0.0000          0.0000           112.50         1.58          0.1400            0.0000          18.0000       PFind                   None            0.00    0.00    None
 51.5800         1.7705           0.0000          0.0000            34.17         0.48          0.0600            0.0000           5.4667       PFind                   None            0.00    0.00    None
 53.7200         1.7049           0.0000          0.0000            65.00         0.91          0.1600            0.0000           7.8000       PFind                   None            0.00    0.00    None
 55.4400         1.6560           0.0000          0.0000            69.17         0.97          0.0000            0.0000           5.5333       PFind                   None            0.00    0.00    None
 57.8800         1.5918           0.0000          0.0000            83.33         1.17          0.0000            0.0000          10.0000       PFind                   None            0.00    0.00    None
 59.2800         1.5575           0.0000          0.0000            39.17         0.55          0.0800            0.0000           5.4833       PFind                   None            0.00    0.00    None
 63.0200         1.4738           0.0000          0.0000           156.67         2.19          0.1600            0.0000          18.8000       PFind                   None            0.00    0.00    None
 64.0400         1.4528           0.0000          0.0000            35.00         0.49          0.1400            0.0000           2.8000       PFind                   None            0.00    0.00    None
 64.6600         1.4403           0.0000          0.0000            68.33         0.96          0.0800            0.0000           2.7333       PFind                   None            0.00    0.00    None

File: G49_pf_RT.txt
Filename:
	C:\Program Files\Thermo Electron\WinXRD\Datafiles\FIEN2\FIEN\G49_RT.pk

File Created:
	February 25, 2021 - 10:51 AM

Specimen Id:
	G49 RT

Specimen Name:

Specimen Description:

Comment:
Scan Type: 2Theta Scan
Start Angle: 3 deg.
Stop Angle: 65 deg.
Num Points: 3101
Step Size: 0.02 deg.
Scan Rate: 1.000000
Scan Mode: Continuous
Wavelength: 1.540562
\Kalpha1: 1.540562	\Kalpha2: 1.544390	\Kbeta: 1.392218

Optics:
		Detector:
			 Type: Fixed Slits
		Tube:
			 Type: Fixed Slits

Datas:
Peaks:

Position        Dspace          ESD(P)          Corr.Fact       Intensity       Rel.Int.        FWHM(L)         ESD(L)          Area            Source                  Curve           Strain  CSize   CSize_Source
[deg]           [A]             [deg]           [deg]           [CPS]           [CPS]           [deg]           [deg]           [deg]           [--]                    [--]            [--]    [--]    [--]
  4.6400        19.0284           0.0000          0.0000            73.33         3.50          0.0200            0.0000           0.0000       PFind                   None            0.00    0.00    None
  5.1000        17.3131           0.0000          0.0000            53.33         2.55          0.1000            0.0000           6.4000       PFind                   None            0.00    0.00    None
  5.5200        15.9967           0.0000          0.0000            52.50         2.51          0.1600            0.0000           2.1000       PFind                   None            0.00    0.00    None
  6.1400        14.3827           0.0000          0.0000            92.50         4.42          0.0600            0.0000           9.2500       PFind                   None            0.00    0.00    None
  6.7800        13.0264           0.0000          0.0000            49.17         2.35          0.1600            0.0000           3.9333       PFind                   None            0.00    0.00    None
  7.4800        11.8089           0.0000          0.0000            48.33         2.31          0.1200            0.0000           1.9333       PFind                   None            0.00    0.00    None
  8.2000        10.7735           0.0000          0.0000            30.83         1.47          0.0800            0.0000           3.0833       PFind                   None            0.00    0.00    None
  9.2000         9.6046           0.0000          0.0000            45.83         2.19          0.1400            0.0000           2.7500       PFind                   None            0.00    0.00    None
 10.0600         8.7854           0.0000          0.0000            33.33         1.59          0.1600            0.0000           1.3333       PFind                   None            0.00    0.00    None
 10.9400         8.0806           0.0000          0.0000            31.67         1.51          0.0400            0.0000           0.6333       PFind                   None            0.00    0.00    None
 12.1600         7.2725           0.0000          0.0000           478.33        22.83          0.0600            0.0000          28.7000       PFind                   None            0.00    0.00    None
 12.7800         6.9210           0.0000          0.0000            33.33         1.59          0.1000            0.0000           0.6667       PFind                   None            0.00    0.00    None
 13.5400         6.5342           0.0000          0.0000            33.33         1.59          0.1000            0.0000           2.0000       PFind                   None            0.00    0.00    None
 14.6600         6.0374           0.0000          0.0000            28.33         1.35          0.0200            0.0000           0.0000       PFind                   None            0.00    0.00    None
 15.9200         5.5623           0.0000          0.0000            36.67         1.75          0.0800            0.0000           1.4667       PFind                   None            0.00    0.00    None
 17.3400         5.1099           0.0000          0.0000            29.17         1.39          0.0600            0.0000           0.5833       PFind                   None            0.00    0.00    None
 18.7800         4.7212           0.0000          0.0000            61.67         2.94          0.0800            0.0000           7.4000       PFind                   None            0.00    0.00    None
 20.0600         4.4227           0.0000          0.0000            33.33         1.59          0.0200            0.0000           0.6667       PFind                   None            0.00    0.00    None
 22.9000         3.8803           0.0000          0.0000            37.50         1.79          0.0200            0.0000           4.5000       PFind                   None            0.00    0.00    None
 24.2200         3.6717           0.0000          0.0000            79.17         3.78          0.0800            0.0000           7.9167       PFind                   None            0.00    0.00    None
 25.1600         3.5366           0.0000          0.0000           118.33         5.65          0.0400            0.0000           9.4667       PFind                   None            0.00    0.00    None
 26.6000         3.3483           0.0000          0.0000          2095.00       100.00          0.0000            0.0000         209.5000       PFind                   None            0.00    0.00    None
 27.9200         3.1929           0.0000          0.0000           277.50        13.25          0.0400            0.0000          44.4000       PFind                   None            0.00    0.00    None
 29.7400         3.0016           0.0000          0.0000           109.17         5.21          0.0400            0.0000          10.9167       PFind                   None            0.00    0.00    None
 30.8000         2.9006           0.0000          0.0000            30.00         1.43          0.1000            0.0000           4.8000       PFind                   None            0.00    0.00    None
 31.5600         2.8325           0.0000          0.0000            35.83         1.71          0.0200            0.0000           1.4333       PFind                   None            0.00    0.00    None
 33.3200         2.6868           0.0000          0.0000            35.00         1.67          0.0200            0.0000           2.8000       PFind                   None            0.00    0.00    None
 34.8400         2.5730           0.0000          0.0000            52.50         2.51          0.1000            0.0000           3.1500       PFind                   None            0.00    0.00    None
 36.5200         2.4584           0.0000          0.0000           197.50         9.43          0.0200            0.0000          15.8000       PFind                   None            0.00    0.00    None
 38.2000         2.3540           0.0000          0.0000           262.50        12.53          0.0800            0.0000          15.7500       PFind                   None            0.00    0.00    None
 39.4200         2.2839           0.0000          0.0000           159.17         7.60          0.0600            0.0000          12.7333       PFind                   None            0.00    0.00    None
 41.6600         2.1662           0.0000          0.0000            27.50         1.31          0.1600            0.0000           2.2000       PFind                   None            0.00    0.00    None
 42.0200         2.1484           0.0000          0.0000            26.67         1.27          0.0200            0.0000           2.1333       PFind                   None            0.00    0.00    None
 43.6600         2.0715           0.0000          0.0000            55.00         2.63          0.1000            0.0000           6.6000       PFind                   None            0.00    0.00    None
 45.2600         2.0019           0.0000          0.0000            35.83         1.71          0.1000            0.0000           0.0000       PFind                   None            0.00    0.00    None
 48.1200         1.8894           0.0000          0.0000            35.83         1.71          0.0800            0.0000           0.7167       PFind                   None            0.00    0.00    None
 50.1000         1.8192           0.0000          0.0000           184.17         8.79          0.0800            0.0000          29.4667       PFind                   None            0.00    0.00    None
 51.0800         1.7866           0.0000          0.0000            97.50         4.65          0.0200            0.0000           3.9000       PFind                   None            0.00    0.00    None
 52.3600         1.7459           0.0000          0.0000            62.50         2.98          0.0600            0.0000           6.2500       PFind                   None            0.00    0.00    None
 53.0600         1.7245           0.0000          0.0000            35.83         1.71          0.1600            0.0000           2.1500       PFind                   None            0.00    0.00    None
 55.0000         1.6682           0.0000          0.0000            80.83         3.86          0.0200            0.0000           8.0833       PFind                   None            0.00    0.00    None
 55.7400         1.6478           0.0000          0.0000            39.17         1.87          0.0600            0.0000           4.7000       PFind                   None            0.00    0.00    None
 58.5800         1.5745           0.0000          0.0000            30.83         1.47          0.0600            0.0000           3.0833       PFind                   None            0.00    0.00    None
 59.1000         1.5619           0.0000          0.0000            33.33         1.59          0.1200            0.0000           2.6667       PFind                   None            0.00    0.00    None
 60.7400         1.5236           0.0000          0.0000            30.83         1.47          0.1200            0.0000           0.6167       PFind                   None            0.00    0.00    None
 61.6000         1.5043           0.0000          0.0000            54.17         2.59          0.1200            0.0000           8.6667       PFind                   None            0.00    0.00    None
 63.9800         1.4540           0.0000          0.0000            42.50         2.03          0.1600            0.0000           0.8500       PFind                   None            0.00    0.00    None
 64.1600         1.4503           0.0000          0.0000            42.50         2.03          0.0800            0.0000           0.8500       PFind                   None            0.00    0.00    None