Folder: Non-Linear-XRD-Inversion/Generating XRD fingerprints/INPUT/Detrital data (part 61)

File: GG_17_pf_SFT.txt
Filename:
	C:\Program Files\Thermo Electron\WinXRD\Datafiles\FIEN2\GEO\GG_17_SFT.pk

File Created:
	February 25, 2021 - 10:26 AM

Specimen Id:
	GG_17_SFT

Specimen Name:

Specimen Description:

Comment:
Scan Type: 2Theta Scan
Start Angle: 3 deg.
Stop Angle: 65 deg.
Num Points: 3101
Step Size: 0.02 deg.
Scan Rate: 1.000000
Scan Mode: Continuous
Wavelength: 1.540562
\Kalpha1: 1.540562	\Kalpha2: 1.544390	\Kbeta: 1.392218

Optics:
		Detector:
			 Type: Fixed Slits
		Tube:
			 Type: Fixed Slits

Datas:
Peaks:

Position        Dspace          ESD(P)          Corr.Fact       Intensity       Rel.Int.        FWHM(L)         ESD(L)          Area            Source                  Curve           Strain  CSize   CSize_Source
[deg]           [A]             [deg]           [deg]           [CPS]           [CPS]           [deg]           [deg]           [deg]           [--]                    [--]            [--]    [--]    [--]
  4.6600        18.9468           0.0000          0.0000            66.67         4.09          0.0600            0.0000           2.6667       PFind                   None            0.00    0.00    None
  5.3400        16.5355           0.0000          0.0000            40.00         2.45          0.0200            0.0000           0.0000       PFind                   None            0.00    0.00    None
  5.9600        14.8167           0.0000          0.0000            43.33         2.66          0.1200            0.0000           4.3333       PFind                   None            0.00    0.00    None
  7.3200        12.0666           0.0000          0.0000            34.17         2.10          0.1000            0.0000           2.7333       PFind                   None            0.00    0.00    None
  8.0400        10.9876           0.0000          0.0000            39.17         2.40          0.1000            0.0000           0.0000       PFind                   None            0.00    0.00    None
  9.0400         9.7743           0.0000          0.0000           410.00        25.14          0.0800            0.0000          49.2000       PFind                   None            0.00    0.00    None
 10.6800         8.2767           0.0000          0.0000           115.00         7.05          0.0200            0.0000          11.5000       PFind                   None            0.00    0.00    None
 12.6400         6.9974           0.0000          0.0000           460.83        28.26          0.0400            0.0000          55.3000       PFind                   None            0.00    0.00    None
 13.7800         6.4210           0.0000          0.0000            28.33         1.74          0.0800            0.0000           2.8333       PFind                   None            0.00    0.00    None
 15.8800         5.5763           0.0000          0.0000            29.17         1.79          0.0400            0.0000           0.5833       PFind                   None            0.00    0.00    None
 18.9400         4.6817           0.0000          0.0000           187.50        11.50          0.0400            0.0000          22.5000       PFind                   None            0.00    0.00    None
 20.0400         4.4271           0.0000          0.0000            50.83         3.12          0.1200            0.0000           6.1000       PFind                   None            0.00    0.00    None
 22.6000         3.9311           0.0000          0.0000            31.67         1.94          0.0400            0.0000           1.9000       PFind                   None            0.00    0.00    None
 24.4200         3.6421           0.0000          0.0000            79.17         4.85          0.1200            0.0000          12.6667       PFind                   None            0.00    0.00    None
 26.7800         3.3262           0.0000          0.0000          1630.83       100.00          0.0400            0.0000         195.7000       PFind                   None            0.00    0.00    None
 28.4200         3.1379           0.0000          0.0000           113.33         6.95          0.1000            0.0000          18.1333       PFind                   None            0.00    0.00    None
 31.0000         2.8824           0.0000          0.0000            70.00         4.29          0.1200            0.0000           4.2000       PFind                   None            0.00    0.00    None
 32.2400         2.7743           0.0000          0.0000            67.50         4.14          0.1000            0.0000          10.8000       PFind                   None            0.00    0.00    None
 34.0800         2.6286           0.0000          0.0000            26.67         1.64          0.0000            0.0000           2.1333       PFind                   None            0.00    0.00    None
 34.9200         2.5673           0.0000          0.0000            48.33         2.96          0.0000            0.0000           1.9333       PFind                   None            0.00    0.00    None
 36.6600         2.4493           0.0000          0.0000           133.33         8.18          0.1200            0.0000          16.0000       PFind                   None            0.00    0.00    None
 38.1200         2.3588           0.0000          0.0000            34.17         2.10          0.1600            0.0000           0.6833       PFind                   None            0.00    0.00    None
 40.1600         2.2435           0.0000          0.0000            25.83         1.58          0.0400            0.0000           3.1000       PFind                   None            0.00    0.00    None
 42.0000         2.1494           0.0000          0.0000            57.50         3.53          0.1200            0.0000           9.2000       PFind                   None            0.00    0.00    None
 45.7000         1.9836           0.0000          0.0000           222.50        13.64          0.1600            0.0000          35.6000       PFind                   None            0.00    0.00    None
 48.8400         1.8632           0.0000          0.0000            27.50         1.69          0.1200            0.0000           1.1000       PFind                   None            0.00    0.00    None
 50.0800         1.8199           0.0000          0.0000            65.83         4.04          0.1600            0.0000           9.2167       PFind                   None            0.00    0.00    None
 51.4000         1.7762           0.0000          0.0000            65.00         3.99          0.0800            0.0000           7.8000       PFind                   None            0.00    0.00    None
 53.2000         1.7203           0.0000          0.0000            35.83         2.20          0.1400            0.0000           0.7167       PFind                   None            0.00    0.00    None
 54.6400         1.6783           0.0000          0.0000            27.50         1.69          0.1600            0.0000           1.1000       PFind                   None            0.00    0.00    None
 55.1800         1.6632           0.0000          0.0000            58.33         3.58          0.1600            0.0000           5.8333       PFind                   None            0.00    0.00    None
 57.1800         1.6097           0.0000          0.0000            33.33         2.04          0.1400            0.0000           2.0000       PFind                   None            0.00    0.00    None
 58.7800         1.5696           0.0000          0.0000            32.50         1.99          0.0200            0.0000           2.6000       PFind                   None            0.00    0.00    None
 60.0800         1.5387           0.0000          0.0000           147.50         9.04          0.0200            0.0000          14.7500       PFind                   None            0.00    0.00    None
 61.6200         1.5039           0.0000          0.0000            43.33         2.66          0.1600            0.0000           3.4667       PFind                   None            0.00    0.00    None
 63.6600         1.4605           0.0000          0.0000            42.50         2.61          0.1200            0.0000           0.0000       PFind                   None            0.00    0.00    None
 64.1600         1.4503           0.0000          0.0000            52.50         3.22          0.1600            0.0000           3.1500       PFind                   None            0.00    0.00    None
 64.5000         1.4435           0.0000          0.0000            31.67         1.94          0.0000            0.0000           3.1667       PFind                   None            0.00    0.00    None

File: GG_18_pf_SFT.txt
Filename:
	C:\Program Files\Thermo Electron\WinXRD\Datafiles\FIEN2\GEO\GG_18_SFT.pk

File Created:
	February 25, 2021 - 10:27 AM

Specimen Id:
	GG_18_SFT

Specimen Name:

Specimen Description:

Comment:
Scan Type: 2Theta Scan
Start Angle: 3 deg.
Stop Angle: 65 deg.
Num Points: 3101
Step Size: 0.02 deg.
Scan Rate: 1.000000
Scan Mode: Continuous
Wavelength: 1.540562
\Kalpha1: 1.540562	\Kalpha2: 1.544390	\Kbeta: 1.392218

Optics:
		Detector:
			 Type: Fixed Slits
		Tube:
			 Type: Fixed Slits

Datas:
Peaks:

Position        Dspace          ESD(P)          Corr.Fact       Intensity       Rel.Int.        FWHM(L)         ESD(L)          Area            Source                  Curve           Strain  CSize   CSize_Source
[deg]           [A]             [deg]           [deg]           [CPS]           [CPS]           [deg]           [deg]           [deg]           [--]                    [--]            [--]    [--]    [--]
  4.8000        18.3945           0.0000          0.0000            64.17         3.49          0.1000            0.0000           1.2833       PFind                   None            0.00    0.00    None
  5.3000        16.6602           0.0000          0.0000            39.17         2.13          0.0600            0.0000           4.7000       PFind                   None            0.00    0.00    None
  5.7200        15.4378           0.0000          0.0000            30.00         1.63          0.0800            0.0000           1.8000       PFind                   None            0.00    0.00    None
  6.4800        13.6288           0.0000          0.0000            50.00         2.72          0.1400            0.0000           4.0000       PFind                   None            0.00    0.00    None
  7.1600        12.3359           0.0000          0.0000            26.67         1.45          0.1200            0.0000           2.6667       PFind                   None            0.00    0.00    None
  7.7000        11.4720           0.0000          0.0000            37.50         2.04          0.1600            0.0000           3.7500       PFind                   None            0.00    0.00    None
  8.9400         9.8834           0.0000          0.0000           886.67        48.19          0.0200            0.0000         106.4000       PFind                   None            0.00    0.00    None
  9.8000         9.0179           0.0000          0.0000            38.33         2.08          0.1000            0.0000           1.5333       PFind                   None            0.00    0.00    None
 10.6200         8.3234           0.0000          0.0000            97.50         5.30          0.1200            0.0000          13.6500       PFind                   None            0.00    0.00    None
 11.7200         7.5445           0.0000          0.0000            26.67         1.45          0.1000            0.0000           0.5333       PFind                   None            0.00    0.00    None
 12.5800         7.0306           0.0000          0.0000           495.00        26.90          0.0400            0.0000          59.4000       PFind                   None            0.00    0.00    None
 15.9800         5.5416           0.0000          0.0000            33.33         1.81          0.0400            0.0000           2.0000       PFind                   None            0.00    0.00    None
 18.8800         4.6964           0.0000          0.0000           204.17        11.10          0.0200            0.0000          20.4167       PFind                   None            0.00    0.00    None
 20.2000         4.3924           0.0000          0.0000            27.50         1.49          0.1600            0.0000           0.0000       PFind                   None            0.00    0.00    None
 21.6200         4.1070           0.0000          0.0000            32.50         1.77          0.0800            0.0000           0.6500       PFind                   None            0.00    0.00    None
 22.6200         3.9277           0.0000          0.0000            35.00         1.90          0.1600            0.0000           2.8000       PFind                   None            0.00    0.00    None
 23.6000         3.7667           0.0000          0.0000           201.67        10.96          0.1000            0.0000          20.1667       PFind                   None            0.00    0.00    None
 24.7000         3.6014           0.0000          0.0000           390.83        21.24          0.0600            0.0000          62.5333       PFind                   None            0.00    0.00    None
 26.7200         3.3336           0.0000          0.0000          1840.00       100.00          0.0200            0.0000         184.0000       PFind                   None            0.00    0.00    None
 28.0000         3.1840           0.0000          0.0000           611.67        33.24          0.0600            0.0000          97.8667       PFind                   None            0.00    0.00    None
 30.2600         2.9512           0.0000          0.0000            89.17         4.85          0.0600            0.0000          14.2667       PFind                   None            0.00    0.00    None
 31.3200         2.8537           0.0000          0.0000           140.00         7.61          0.1400            0.0000          22.4000       PFind                   None            0.00    0.00    None
 33.1400         2.7010           0.0000          0.0000            66.67         3.62          0.1400            0.0000           2.6667       PFind                   None            0.00    0.00    None
 34.6200         2.5888           0.0000          0.0000            75.00         4.08          0.0200            0.0000          12.0000       PFind                   None            0.00    0.00    None
 36.2000         2.4794           0.0000          0.0000            68.33         3.71          0.1600            0.0000           9.5667       PFind                   None            0.00    0.00    None
 37.2800         2.4100           0.0000          0.0000            49.17         2.67          0.0400            0.0000           0.0000       PFind                   None            0.00    0.00    None
 38.8600         2.3156           0.0000          0.0000            44.17         2.40          0.1600            0.0000           4.4167       PFind                   None            0.00    0.00    None
 39.8400         2.2608           0.0000          0.0000            34.17         1.86          0.0800            0.0000           2.7333       PFind                   None            0.00    0.00    None
 41.4000         2.1792           0.0000          0.0000            29.17         1.59          0.1200            0.0000           2.9167       PFind                   None            0.00    0.00    None
 42.5200         2.1243           0.0000          0.0000           155.00         8.42          0.1600            0.0000          12.4000       PFind                   None            0.00    0.00    None
 47.2600         1.9217           0.0000          0.0000            32.50         1.77          0.0800            0.0000           3.2500       PFind                   None            0.00    0.00    None
 48.7600         1.8661           0.0000          0.0000            26.67         1.45          0.1600            0.0000           2.1333       PFind                   None            0.00    0.00    None
 50.3400         1.8111           0.0000          0.0000           153.33         8.33          0.1000            0.0000          18.4000       PFind                   None            0.00    0.00    None
 52.5800         1.7391           0.0000          0.0000            34.17         1.86          0.0600            0.0000           2.7333       PFind                   None            0.00    0.00    None
 53.2800         1.7179           0.0000          0.0000            33.33         1.81          0.1000            0.0000           2.6667       PFind                   None            0.00    0.00    None
 54.9400         1.6699           0.0000          0.0000            78.33         4.26          0.1000            0.0000           7.8333       PFind                   None            0.00    0.00    None
 55.9000         1.6434           0.0000          0.0000            81.67         4.44          0.0800            0.0000          13.0667       PFind                   None            0.00    0.00    None
 56.8600         1.6179           0.0000          0.0000            26.67         1.45          0.0800            0.0000           0.0000       PFind                   None            0.00    0.00    None
 59.2000         1.5595           0.0000          0.0000            42.50         2.31          0.1000            0.0000           5.1000       PFind                   None            0.00    0.00    None
 60.1800         1.5364           0.0000          0.0000            86.67         4.71          0.1200            0.0000          10.4000       PFind                   None            0.00    0.00    None
 61.5400         1.5057           0.0000          0.0000            48.33         2.63          0.0600            0.0000           6.7667       PFind                   None            0.00    0.00    None
 64.0600         1.4524           0.0000          0.0000            44.17         2.40          0.1600            0.0000           4.4167       PFind                   None            0.00    0.00    None
 64.2200         1.4491           0.0000          0.0000            37.50         2.04          0.0800            0.0000           4.5000       PFind                   None            0.00    0.00    None