Folder: Non-Linear-XRD-Inversion/Generating XRD fingerprints/INPUT/Detrital data (part 42)

File: G61_pf_RT.txt
Filename:
	C:\Program Files\Thermo Electron\WinXRD\Datafiles\FIEN2\GEO\G61_RT.pk

File Created:
	February 25, 2021 - 09:52 AM

Specimen Id:
	G61_RT

Specimen Name:

Specimen Description:

Comment:
Scan Type: 2Theta Scan
Start Angle: 3 deg.
Stop Angle: 65 deg.
Num Points: 3101
Step Size: 0.02 deg.
Scan Rate: 1.000000
Scan Mode: Continuous
Wavelength: 1.540562
\Kalpha1: 1.540562	\Kalpha2: 1.544390	\Kbeta: 1.392218

Optics:
		Detector:
			 Type: Fixed Slits
		Tube:
			 Type: Fixed Slits

Datas:
Peaks:

Position        Dspace          ESD(P)          Corr.Fact       Intensity       Rel.Int.        FWHM(L)         ESD(L)          Area            Source                  Curve           Strain  CSize   CSize_Source
[deg]           [A]             [deg]           [deg]           [CPS]           [CPS]           [deg]           [deg]           [deg]           [--]                    [--]            [--]    [--]    [--]
  4.7400        18.6272           0.0000          0.0000            51.67         3.05          0.1400            0.0000           4.1333       PFind                   None            0.00    0.00    None
  5.1600        17.1119           0.0000          0.0000            50.83         3.00          0.1600            0.0000           4.0667       PFind                   None            0.00    0.00    None
  5.6000        15.7684           0.0000          0.0000            47.50         2.80          0.1600            0.0000           1.9000       PFind                   None            0.00    0.00    None
  6.3000        14.0178           0.0000          0.0000            53.33         3.14          0.0400            0.0000           8.5333       PFind                   None            0.00    0.00    None
  6.8200        12.9501           0.0000          0.0000            50.83         3.00          0.1200            0.0000           5.0833       PFind                   None            0.00    0.00    None
  7.2000        12.2675           0.0000          0.0000            50.00         2.95          0.1600            0.0000           1.0000       PFind                   None            0.00    0.00    None
  7.7200        11.4423           0.0000          0.0000            39.17         2.31          0.0800            0.0000           0.7833       PFind                   None            0.00    0.00    None
  8.2800        10.6696           0.0000          0.0000            36.67         2.16          0.0600            0.0000           2.9333       PFind                   None            0.00    0.00    None
  9.1400         9.6675           0.0000          0.0000            47.50         2.80          0.1200            0.0000           3.8000       PFind                   None            0.00    0.00    None
  9.6600         9.1483           0.0000          0.0000            33.33         1.97          0.0000            0.0000           1.3333       PFind                   None            0.00    0.00    None
 10.4800         8.4342           0.0000          0.0000           275.00        16.22          0.0800            0.0000          11.0000       PFind                   None            0.00    0.00    None
 11.6600         7.5832           0.0000          0.0000            32.50         1.92          0.1600            0.0000           0.6500       PFind                   None            0.00    0.00    None
 12.6800         6.9754           0.0000          0.0000            35.83         2.11          0.1600            0.0000           3.5833       PFind                   None            0.00    0.00    None
 13.5200         6.5438           0.0000          0.0000            40.00         2.36          0.0600            0.0000           1.6000       PFind                   None            0.00    0.00    None
 13.9600         6.3386           0.0000          0.0000            33.33         1.97          0.1600            0.0000           2.0000       PFind                   None            0.00    0.00    None
 17.2200         5.1452           0.0000          0.0000            41.67         2.46          0.0800            0.0000           4.1667       PFind                   None            0.00    0.00    None
 18.6800         4.7462           0.0000          0.0000            64.17         3.78          0.0400            0.0000           7.7000       PFind                   None            0.00    0.00    None
 20.7600         4.2752           0.0000          0.0000           445.83        26.29          0.0400            0.0000          26.7500       PFind                   None            0.00    0.00    None
 21.9600         4.0442           0.0000          0.0000            95.83         5.65          0.1600            0.0000          13.4167       PFind                   None            0.00    0.00    None
 23.4800         3.7857           0.0000          0.0000            73.33         4.32          0.1200            0.0000           8.8000       PFind                   None            0.00    0.00    None
 24.7800         3.5900           0.0000          0.0000            81.67         4.82          0.0400            0.0000          11.4333       PFind                   None            0.00    0.00    None
 26.1000         3.4113           0.0000          0.0000            40.83         2.41          0.1600            0.0000           0.0000       PFind                   None            0.00    0.00    None
 27.4000         3.2524           0.0000          0.0000           152.50         8.99          0.0200            0.0000          21.3500       PFind                   None            0.00    0.00    None
 29.7800         2.9976           0.0000          0.0000            56.67         3.34          0.1200            0.0000           9.0667       PFind                   None            0.00    0.00    None
 30.4200         2.9360           0.0000          0.0000            48.33         2.85          0.1600            0.0000           4.8333       PFind                   None            0.00    0.00    None
 31.4800         2.8395           0.0000          0.0000            30.00         1.77          0.1000            0.0000           1.2000       PFind                   None            0.00    0.00    None
 34.5200         2.5961           0.0000          0.0000            58.33         3.44          0.0000            0.0000           5.8333       PFind                   None            0.00    0.00    None
 35.4200         2.5322           0.0000          0.0000           142.50         8.40          0.0400            0.0000          19.9500       PFind                   None            0.00    0.00    None
 37.3800         2.4038           0.0000          0.0000            40.83         2.41          0.1200            0.0000           6.5333       PFind                   None            0.00    0.00    None
 38.7400         2.3225           0.0000          0.0000            38.33         2.26          0.1000            0.0000           0.7667       PFind                   None            0.00    0.00    None
 41.2600         2.1862           0.0000          0.0000            44.17         2.60          0.0400            0.0000           0.8833       PFind                   None            0.00    0.00    None
 43.5600         2.0760           0.0000          0.0000            50.00         2.95          0.1400            0.0000           8.0000       PFind                   None            0.00    0.00    None
 45.5000         1.9919           0.0000          0.0000           115.83         6.83          0.0800            0.0000          18.5333       PFind                   None            0.00    0.00    None
 47.8600         1.8990           0.0000          0.0000            78.33         4.62          0.0400            0.0000           4.7000       PFind                   None            0.00    0.00    None
 49.8200         1.8288           0.0000          0.0000            51.67         3.05          0.0000            0.0000           6.2000       PFind                   None            0.00    0.00    None
 50.6600         1.8004           0.0000          0.0000            34.17         2.01          0.1000            0.0000           2.0500       PFind                   None            0.00    0.00    None
 52.0200         1.7565           0.0000          0.0000           178.33        10.52          0.0400            0.0000           7.1333       PFind                   None            0.00    0.00    None
 54.7400         1.6755           0.0000          0.0000            60.83         3.59          0.0400            0.0000           6.0833       PFind                   None            0.00    0.00    None
 55.7400         1.6478           0.0000          0.0000            30.83         1.82          0.0800            0.0000           4.9333       PFind                   None            0.00    0.00    None
 58.9400         1.5657           0.0000          0.0000            38.33         2.26          0.1200            0.0000           2.3000       PFind                   None            0.00    0.00    None
 59.8600         1.5438           0.0000          0.0000           178.33        10.52          0.1200            0.0000          21.4000       PFind                   None            0.00    0.00    None
 61.3400         1.5101           0.0000          0.0000            46.67         2.75          0.1600            0.0000           5.6000       PFind                   None            0.00    0.00    None
 63.4000         1.4659           0.0000          0.0000           995.00        58.67          0.0800            0.0000          39.8000       PFind                   None            0.00    0.00    None
 63.9200         1.4552           0.0000          0.0000            50.83         3.00          0.0800            0.0000           4.0667       PFind                   None            0.00    0.00    None

File: G62_pf_RT.txt
Filename:
	C:\Program Files\Thermo Electron\WinXRD\Datafiles\FIEN2\GEO\G62_RT.pk

File Created:
	February 25, 2021 - 09:53 AM

Specimen Id:
	G62_RT

Specimen Name:

Specimen Description:

Comment:
Scan Type: 2Theta Scan
Start Angle: 3 deg.
Stop Angle: 65 deg.
Num Points: 3101
Step Size: 0.02 deg.
Scan Rate: 1.000000
Scan Mode: Continuous
Wavelength: 1.540562
\Kalpha1: 1.540562	\Kalpha2: 1.544390	\Kbeta: 1.392218

Optics:
		Detector:
			 Type: Fixed Slits
		Tube:
			 Type: Fixed Slits

Datas:
Peaks:

Position        Dspace          ESD(P)          Corr.Fact       Intensity       Rel.Int.        FWHM(L)         ESD(L)          Area            Source                  Curve           Strain  CSize   CSize_Source
[deg]           [A]             [deg]           [deg]           [CPS]           [CPS]           [deg]           [deg]           [deg]           [--]                    [--]            [--]    [--]    [--]
  4.7400        18.6272           0.0000          0.0000            52.50         1.90          0.1400            0.0000           4.2000       PFind                   None            0.00    0.00    None
  5.3400        16.5355           0.0000          0.0000            35.83         1.30          0.0800            0.0000           2.8667       PFind                   None            0.00    0.00    None
  6.1600        14.3361           0.0000          0.0000           135.00         4.89          0.0600            0.0000          13.5000       PFind                   None            0.00    0.00    None
  6.4600        13.6710           0.0000          0.0000            55.83         2.02          0.1400            0.0000           0.0000       PFind                   None            0.00    0.00    None
  6.9600        12.6899           0.0000          0.0000            42.50         1.54          0.0200            0.0000           1.7000       PFind                   None            0.00    0.00    None
  7.6400        11.5619           0.0000          0.0000            42.50         1.54          0.1200            0.0000           0.8500       PFind                   None            0.00    0.00    None
  8.4200        10.4925           0.0000          0.0000            41.67         1.51          0.0400            0.0000           2.5000       PFind                   None            0.00    0.00    None
  9.3800         9.4207           0.0000          0.0000            41.67         1.51          0.1200            0.0000           3.3333       PFind                   None            0.00    0.00    None
 10.4200         8.4827           0.0000          0.0000            77.50         2.81          0.0400            0.0000           9.3000       PFind                   None            0.00    0.00    None
 11.3600         7.7828           0.0000          0.0000            32.50         1.18          0.0600            0.0000           0.0000       PFind                   None            0.00    0.00    None
 11.7400         7.5317           0.0000          0.0000            35.83         1.30          0.1600            0.0000           2.8667       PFind                   None            0.00    0.00    None
 12.4000         7.1323           0.0000          0.0000           258.33         9.35          0.0000            0.0000          31.0000       PFind                   None            0.00    0.00    None
 13.3600         6.6219           0.0000          0.0000            33.33         1.21          0.0400            0.0000           0.0000       PFind                   None            0.00    0.00    None
 14.1800         6.2407           0.0000          0.0000            35.83         1.30          0.1200            0.0000           0.0000       PFind                   None            0.00    0.00    None
 15.2800         5.7938           0.0000          0.0000            33.33         1.21          0.0000            0.0000           0.6667       PFind                   None            0.00    0.00    None
 18.4600         4.8023           0.0000          0.0000            68.33         2.47          0.1200            0.0000           6.8333       PFind                   None            0.00    0.00    None
 19.6000         4.5255           0.0000          0.0000            33.33         1.21          0.0800            0.0000           3.3333       PFind                   None            0.00    0.00    None
 21.6600         4.0995           0.0000          0.0000            29.17         1.06          0.0400            0.0000           1.1667       PFind                   None            0.00    0.00    None
 22.8000         3.8971           0.0000          0.0000            50.00         1.81          0.1200            0.0000           5.0000       PFind                   None            0.00    0.00    None
 23.9600         3.7109           0.0000          0.0000            30.83         1.12          0.0800            0.0000           1.2333       PFind                   None            0.00    0.00    None
 24.7600         3.5928           0.0000          0.0000            89.17         3.23          0.0000            0.0000          12.4833       PFind                   None            0.00    0.00    None
 25.4200         3.5010           0.0000          0.0000            98.33         3.56          0.0600            0.0000          15.7333       PFind                   None            0.00    0.00    None
 26.8000         3.3238           0.0000          0.0000           385.83        13.97          0.0600            0.0000          54.0167       PFind                   None            0.00    0.00    None
 27.8600         3.1997           0.0000          0.0000           295.83        10.71          0.1000            0.0000          47.3333       PFind                   None            0.00    0.00    None
 29.7200         3.0035           0.0000          0.0000           118.33         4.28          0.0200            0.0000          14.2000       PFind                   None            0.00    0.00    None
 30.4400         2.9341           0.0000          0.0000            42.50         1.54          0.1600            0.0000           0.0000       PFind                   None            0.00    0.00    None
 31.4800         2.8395           0.0000          0.0000            64.17         2.32          0.1000            0.0000           3.8500       PFind                   None            0.00    0.00    None
 33.8400         2.6467           0.0000          0.0000            47.50         1.72          0.0800            0.0000           1.9000       PFind                   None            0.00    0.00    None
 35.4400         2.5308           0.0000          0.0000           130.83         4.74          0.1600            0.0000          15.7000       PFind                   None            0.00    0.00    None
 37.0600         2.4238           0.0000          0.0000            34.17         1.24          0.0800            0.0000           1.3667       PFind                   None            0.00    0.00    None
 38.7400         2.3225           0.0000          0.0000            31.67         1.15          0.1000            0.0000           1.2667       PFind                   None            0.00    0.00    None
 40.2000         2.2414           0.0000          0.0000            75.00         2.71          0.0400            0.0000           9.0000       PFind                   None            0.00    0.00    None
 42.7200         2.1148           0.0000          0.0000            30.00         1.09          0.0600            0.0000           3.6000       PFind                   None            0.00    0.00    None
 43.8400         2.0634           0.0000          0.0000            31.67         1.15          0.1000            0.0000           3.8000       PFind                   None            0.00    0.00    None
 45.7000         1.9836           0.0000          0.0000           162.50         5.88          0.0200            0.0000          13.0000       PFind                   None            0.00    0.00    None
 50.5000         1.8058           0.0000          0.0000            99.17         3.59          0.0800            0.0000          11.9000       PFind                   None            0.00    0.00    None
 52.0000         1.7571           0.0000          0.0000            29.17         1.06          0.1200            0.0000           0.0000       PFind                   None            0.00    0.00    None
 54.9000         1.6710           0.0000          0.0000            60.83         2.20          0.1000            0.0000           4.8667       PFind                   None            0.00    0.00    None
 55.6800         1.6494           0.0000          0.0000            40.83         1.48          0.1600            0.0000           4.0833       PFind                   None            0.00    0.00    None
 58.5400         1.5755           0.0000          0.0000            97.50         3.53          0.1600            0.0000           5.8500       PFind                   None            0.00    0.00    None
 59.1000         1.5619           0.0000          0.0000            44.17         1.60          0.0000            0.0000           4.4167       PFind                   None            0.00    0.00    None
 60.9800         1.5181           0.0000          0.0000            35.83         1.30          0.1200            0.0000           0.7167       PFind                   None            0.00    0.00    None
 61.8000         1.4999           0.0000          0.0000            55.00         1.99          0.1000            0.0000           2.2000       PFind                   None            0.00    0.00    None
 64.5800         1.4419           0.0000          0.0000            48.33         1.75          0.1000            0.0000           1.9333       PFind                   None            0.00    0.00    None