Folder: Non-Linear-XRD-Inversion/Generating XRD fingerprints/INPUT/Detrital data (part 29)

File: G27_PF_RT.txt
Filename:
	C:\Program Files\Thermo Electron\WinXRD\Datafiles\FIEN2\GEO\G27_RT.pk

File Created:
	February 25, 2021 - 09:39 AM

Specimen Id:
	G27_RT

Specimen Name:

Specimen Description:

Comment:
Scan Type: 2Theta Scan
Start Angle: 3 deg.
Stop Angle: 65 deg.
Num Points: 3101
Step Size: 0.02 deg.
Scan Rate: 1.000000
Scan Mode: Continuous
Wavelength: 1.540562
\Kalpha1: 1.540562	\Kalpha2: 1.544390	\Kbeta: 1.392218

Optics:
		Detector:
			 Type: Fixed Slits
		Tube:
			 Type: Fixed Slits

Datas:
Peaks:

Position        Dspace          ESD(P)          Corr.Fact       Intensity       Rel.Int.        FWHM(L)         ESD(L)          Area            Source                  Curve           Strain  CSize   CSize_Source
[deg]           [A]             [deg]           [deg]           [CPS]           [CPS]           [deg]           [deg]           [deg]           [--]                    [--]            [--]    [--]    [--]
  4.8200        18.3182           0.0000          0.0000            53.33         2.66          0.0800            0.0000           8.5333       PFind                   None            0.00    0.00    None
  5.5000        16.0548           0.0000          0.0000            60.00         2.99          0.0400            0.0000           7.2000       PFind                   None            0.00    0.00    None
  6.6200        13.3409           0.0000          0.0000            50.00         2.49          0.0400            0.0000           4.0000       PFind                   None            0.00    0.00    None
  7.2800        12.1328           0.0000          0.0000            41.67         2.08          0.1000            0.0000           0.0000       PFind                   None            0.00    0.00    None
  8.1200        10.8795           0.0000          0.0000            45.00         2.24          0.1000            0.0000           5.4000       PFind                   None            0.00    0.00    None
  9.3200         9.4812           0.0000          0.0000            58.33         2.91          0.1200            0.0000           3.5000       PFind                   None            0.00    0.00    None
  9.9600         8.8734           0.0000          0.0000            31.67         1.58          0.0600            0.0000           1.2667       PFind                   None            0.00    0.00    None
 10.9400         8.0806           0.0000          0.0000            25.83         1.29          0.0600            0.0000           2.0667       PFind                   None            0.00    0.00    None
 12.3800         7.1438           0.0000          0.0000           359.17        17.91          0.1600            0.0000          28.7333       PFind                   None            0.00    0.00    None
 13.7400         6.4396           0.0000          0.0000            92.50         4.61          0.0200            0.0000           5.5500       PFind                   None            0.00    0.00    None
 15.7200         5.6326           0.0000          0.0000            35.00         1.74          0.1600            0.0000           1.4000       PFind                   None            0.00    0.00    None
 17.0800         5.1871           0.0000          0.0000            25.83         1.29          0.0600            0.0000           0.5167       PFind                   None            0.00    0.00    None
 18.4800         4.7972           0.0000          0.0000            52.50         2.62          0.1600            0.0000           3.1500       PFind                   None            0.00    0.00    None
 19.7600         4.4892           0.0000          0.0000            65.83         3.28          0.1000            0.0000          10.5333       PFind                   None            0.00    0.00    None
 22.8200         3.8937           0.0000          0.0000            41.67         2.08          0.0800            0.0000           3.3333       PFind                   None            0.00    0.00    None
 24.1400         3.6837           0.0000          0.0000            65.83         3.28          0.0600            0.0000           7.9000       PFind                   None            0.00    0.00    None
 25.4400         3.4983           0.0000          0.0000           105.00         5.23          0.0800            0.0000          16.8000       PFind                   None            0.00    0.00    None
 27.8000         3.2065           0.0000          0.0000           692.50        34.52          0.0200            0.0000          83.1000       PFind                   None            0.00    0.00    None
 30.0600         2.9703           0.0000          0.0000            69.17         3.45          0.1000            0.0000          11.0667       PFind                   None            0.00    0.00    None
 31.4600         2.8413           0.0000          0.0000            46.67         2.33          0.1200            0.0000           1.8667       PFind                   None            0.00    0.00    None
 33.4200         2.6790           0.0000          0.0000            40.00         1.99          0.0200            0.0000           4.0000       PFind                   None            0.00    0.00    None
 35.9600         2.4954           0.0000          0.0000            38.33         1.91          0.0400            0.0000           3.0667       PFind                   None            0.00    0.00    None
 37.5200         2.3951           0.0000          0.0000            63.33         3.16          0.0800            0.0000           6.3333       PFind                   None            0.00    0.00    None
 39.3400         2.2884           0.0000          0.0000           125.00         6.23          0.0800            0.0000           7.5000       PFind                   None            0.00    0.00    None
 41.6000         2.1692           0.0000          0.0000           208.33        10.39          0.0000            0.0000          33.3333       PFind                   None            0.00    0.00    None
 42.8400         2.1092           0.0000          0.0000            31.67         1.58          0.1000            0.0000           1.2667       PFind                   None            0.00    0.00    None
 44.8200         2.0205           0.0000          0.0000            85.00         4.24          0.0200            0.0000          13.6000       PFind                   None            0.00    0.00    None
 45.6800         1.9844           0.0000          0.0000           173.33         8.64          0.0800            0.0000          17.3333       PFind                   None            0.00    0.00    None
 48.1600         1.8879           0.0000          0.0000            33.33         1.66          0.1000            0.0000           0.0000       PFind                   None            0.00    0.00    None
 50.4600         1.8071           0.0000          0.0000            70.00         3.49          0.0200            0.0000           7.0000       PFind                   None            0.00    0.00    None
 52.0000         1.7571           0.0000          0.0000            30.83         1.54          0.0800            0.0000           2.4667       PFind                   None            0.00    0.00    None
 53.0800         1.7239           0.0000          0.0000            29.17         1.45          0.1000            0.0000           4.6667       PFind                   None            0.00    0.00    None
 54.9200         1.6704           0.0000          0.0000            55.00         2.74          0.1400            0.0000           3.3000       PFind                   None            0.00    0.00    None
 55.7600         1.6472           0.0000          0.0000            32.50         1.62          0.0000            0.0000           5.2000       PFind                   None            0.00    0.00    None
 58.6000         1.5740           0.0000          0.0000            36.67         1.83          0.0400            0.0000           2.9333       PFind                   None            0.00    0.00    None
 59.8400         1.5443           0.0000          0.0000           189.17         9.43          0.1600            0.0000          18.9167       PFind                   None            0.00    0.00    None
 61.5000         1.5065           0.0000          0.0000            55.00         2.74          0.1600            0.0000           6.6000       PFind                   None            0.00    0.00    None
 63.9400         1.4548           0.0000          0.0000            62.50         3.12          0.0600            0.0000           6.2500       PFind                   None            0.00    0.00    None
 64.7000         1.4395           0.0000          0.0000            31.67         1.58          0.0600            0.0000           1.9000       PFind                   None            0.00    0.00    None

File: G27A_pf_FT.txt
Filename:
	C:\Program Files\Thermo Electron\WinXRD\Datafiles\FIEN2\FIEN\G27A_FT.pk

File Created:
	February 25, 2021 - 10:47 AM

Specimen Id:
	G27A FT

Specimen Name:

Specimen Description:

Comment:
Scan Type: 2Theta Scan
Start Angle: 1 deg.
Stop Angle: 65 deg.
Num Points: 3201
Step Size: 0.02 deg.
Scan Rate: 1.000000
Scan Mode: Continuous
Wavelength: 1.540562
\Kalpha1: 1.540562	\Kalpha2: 1.544390	\Kbeta: 1.392218

Optics:
		Detector:
			 Type: Fixed Slits
		Tube:
			 Type: Fixed Slits

Datas:
Peaks:

Position        Dspace          ESD(P)          Corr.Fact       Intensity       Rel.Int.        FWHM(L)         ESD(L)          Area            Source                  Curve           Strain  CSize   CSize_Source
[deg]           [A]             [deg]           [deg]           [CPS]           [CPS]           [deg]           [deg]           [deg]           [--]                    [--]            [--]    [--]    [--]
  3.0600        28.8491           0.0000          0.0000            71.67         0.78          0.1600            0.0000           8.6000       PFind                   None            0.00    0.00    None
  3.7600        23.4797           0.0000          0.0000            67.50         0.73          0.1600            0.0000          10.8000       PFind                   None            0.00    0.00    None
  4.2600        20.7249           0.0000          0.0000            48.33         0.52          0.1600            0.0000           5.8000       PFind                   None            0.00    0.00    None
  4.7400        18.6272           0.0000          0.0000            65.00         0.71          0.0600            0.0000           1.3000       PFind                   None            0.00    0.00    None
  5.1600        17.1119           0.0000          0.0000            45.83         0.50          0.1600            0.0000           3.6667       PFind                   None            0.00    0.00    None
  6.1600        14.3361           0.0000          0.0000           162.50         1.76          0.0200            0.0000          22.7500       PFind                   None            0.00    0.00    None
  7.3200        12.0666           0.0000          0.0000            38.33         0.42          0.0600            0.0000           0.0000       PFind                   None            0.00    0.00    None
  7.8800        11.2103           0.0000          0.0000            44.17         0.48          0.0600            0.0000           4.4167       PFind                   None            0.00    0.00    None
  9.3400         9.4610           0.0000          0.0000            38.33         0.42          0.0600            0.0000           3.8333       PFind                   None            0.00    0.00    None
 10.4000         8.4989           0.0000          0.0000            85.83         0.93          0.0600            0.0000           8.5833       PFind                   None            0.00    0.00    None
 12.4000         7.1323           0.0000          0.0000           252.50         2.74          0.0000            0.0000          35.3500       PFind                   None            0.00    0.00    None
 13.3000         6.6516           0.0000          0.0000            40.83         0.44          0.0800            0.0000           1.6333       PFind                   None            0.00    0.00    None
 14.8600         5.9566           0.0000          0.0000            43.33         0.47          0.0600            0.0000           2.6000       PFind                   None            0.00    0.00    None
 18.3800         4.8230           0.0000          0.0000            45.83         0.50          0.1200            0.0000           4.5833       PFind                   None            0.00    0.00    None
 19.8200         4.4757           0.0000          0.0000            67.50         0.73          0.0400            0.0000           4.0500       PFind                   None            0.00    0.00    None
 22.4000         3.9657           0.0000          0.0000            40.83         0.44          0.0400            0.0000           3.2667       PFind                   None            0.00    0.00    None
 23.9200         3.7171           0.0000          0.0000            80.00         0.87          0.1000            0.0000           8.0000       PFind                   None            0.00    0.00    None
 25.0600         3.5505           0.0000          0.0000           221.67         2.40          0.0200            0.0000          26.6000       PFind                   None            0.00    0.00    None
 26.5400         3.3558           0.0000          0.0000          9217.50       100.00          0.1200            0.0000         921.7500       PFind                   None            0.00    0.00    None
 27.7800         3.2087           0.0000          0.0000           325.00         3.53          0.1600            0.0000          52.0000       PFind                   None            0.00    0.00    None
 29.0800         3.0682           0.0000          0.0000            47.50         0.52          0.1600            0.0000           1.9000       PFind                   None            0.00    0.00    None
 30.1200         2.9646           0.0000          0.0000           100.00         1.08          0.0600            0.0000           6.0000       PFind                   None            0.00    0.00    None
 30.5000         2.9285           0.0000          0.0000           110.00         1.19          0.1400            0.0000           6.6000       PFind                   None            0.00    0.00    None
 31.4600         2.8413           0.0000          0.0000            50.00         0.54          0.0600            0.0000           5.0000       PFind                   None            0.00    0.00    None
 33.0000         2.7121           0.0000          0.0000            82.50         0.90          0.1200            0.0000           4.9500       PFind                   None            0.00    0.00    None
 35.5200         2.5253           0.0000          0.0000           155.83         1.69          0.0600            0.0000          15.5833       PFind                   None            0.00    0.00    None
 37.4400         2.4001           0.0000          0.0000            38.33         0.42          0.0400            0.0000           6.1333       PFind                   None            0.00    0.00    None
 38.7600         2.3213           0.0000          0.0000            79.17         0.86          0.1000            0.0000           4.7500       PFind                   None            0.00    0.00    None
 42.3800         2.1310           0.0000          0.0000           267.50         2.90          0.0200            0.0000          26.7500       PFind                   None            0.00    0.00    None
 45.4800         1.9927           0.0000          0.0000           730.83         7.93          0.0400            0.0000         116.9333       PFind                   None            0.00    0.00    None
 49.8000         1.8295           0.0000          0.0000            40.83         0.44          0.0400            0.0000           6.5333       PFind                   None            0.00    0.00    None
 51.1200         1.7853           0.0000          0.0000            62.50         0.68          0.0600            0.0000          10.0000       PFind                   None            0.00    0.00    None
 54.9200         1.6704           0.0000          0.0000           215.00         2.33          0.0600            0.0000          12.9000       PFind                   None            0.00    0.00    None
 56.0000         1.6407           0.0000          0.0000            45.83         0.50          0.1600            0.0000           5.5000       PFind                   None            0.00    0.00    None
 56.6800         1.6227           0.0000          0.0000            38.33         0.42          0.0400            0.0000           1.5333       PFind                   None            0.00    0.00    None
 60.0600         1.5392           0.0000          0.0000           306.67         3.33          0.1400            0.0000          24.5333       PFind                   None            0.00    0.00    None
 63.6000         1.4618           0.0000          0.0000            41.67         0.45          0.1200            0.0000           1.6667       PFind                   None            0.00    0.00    None
 64.3400         1.4467           0.0000          0.0000           520.83         5.65          0.0000            0.0000          31.2500       PFind                   None            0.00    0.00    None
 64.5200         1.4431           0.0000          0.0000           283.33         3.07          0.0800            0.0000          17.0000       PFind                   None            0.00    0.00    None