Folder: Non-Linear-XRD-Inversion/Generating XRD fingerprints/INPUT/Detrital data (part 40)

File: G56_pf_RT.txt
Filename:
	C:\Program Files\Thermo Electron\WinXRD\Datafiles\FIEN2\GEO\G56_RT.pk

File Created:
	February 25, 2021 - 09:50 AM

Specimen Id:
	G56_RT

Specimen Name:

Specimen Description:

Comment:
Scan Type: 2Theta Scan
Start Angle: 3 deg.
Stop Angle: 65 deg.
Num Points: 3101
Step Size: 0.02 deg.
Scan Rate: 1.000000
Scan Mode: Continuous
Wavelength: 1.540562
\Kalpha1: 1.540562	\Kalpha2: 1.544390	\Kbeta: 1.392218

Optics:
		Detector:
			 Type: Fixed Slits
		Tube:
			 Type: Fixed Slits

Datas:
Peaks:

Position        Dspace          ESD(P)          Corr.Fact       Intensity       Rel.Int.        FWHM(L)         ESD(L)          Area            Source                  Curve           Strain  CSize   CSize_Source
[deg]           [A]             [deg]           [deg]           [CPS]           [CPS]           [deg]           [deg]           [deg]           [--]                    [--]            [--]    [--]    [--]
  4.6800        18.8659           0.0000          0.0000            53.33         1.00          0.0400            0.0000           1.0667       PFind                   None            0.00    0.00    None
  5.2200        16.9154           0.0000          0.0000            57.50         1.08          0.1000            0.0000           2.3000       PFind                   None            0.00    0.00    None
  5.7600        15.3307           0.0000          0.0000            39.17         0.74          0.0800            0.0000           1.5667       PFind                   None            0.00    0.00    None
  6.6000        13.3813           0.0000          0.0000            50.00         0.94          0.1600            0.0000           3.0000       PFind                   None            0.00    0.00    None
  7.2000        12.2675           0.0000          0.0000            39.17         0.74          0.0400            0.0000           0.7833       PFind                   None            0.00    0.00    None
  8.0400        10.9876           0.0000          0.0000            32.50         0.61          0.0600            0.0000           0.6500       PFind                   None            0.00    0.00    None
  9.4200         9.3808           0.0000          0.0000            70.83         1.33          0.0200            0.0000           5.6667       PFind                   None            0.00    0.00    None
 10.3200         8.5646           0.0000          0.0000            44.17         0.83          0.1600            0.0000           1.7667       PFind                   None            0.00    0.00    None
 11.0400         8.0076           0.0000          0.0000            33.33         0.63          0.1000            0.0000           2.6667       PFind                   None            0.00    0.00    None
 12.1800         7.2606           0.0000          0.0000           175.83         3.31          0.1000            0.0000          24.6167       PFind                   None            0.00    0.00    None
 13.1400         6.7322           0.0000          0.0000            25.00         0.47          0.1600            0.0000           0.0000       PFind                   None            0.00    0.00    None
 13.6400         6.4865           0.0000          0.0000            40.00         0.75          0.1600            0.0000           0.8000       PFind                   None            0.00    0.00    None
 14.9200         5.9328           0.0000          0.0000            30.00         0.56          0.0800            0.0000           3.6000       PFind                   None            0.00    0.00    None
 17.8000         4.9789           0.0000          0.0000           289.17         5.44          0.0000            0.0000          28.9167       PFind                   None            0.00    0.00    None
 19.6800         4.5073           0.0000          0.0000            34.17         0.64          0.0600            0.0000           0.6833       PFind                   None            0.00    0.00    None
 22.0200         4.0333           0.0000          0.0000           188.33         3.54          0.0200            0.0000          18.8333       PFind                   None            0.00    0.00    None
 23.5400         3.7762           0.0000          0.0000           171.67         3.23          0.0200            0.0000          13.7333       PFind                   None            0.00    0.00    None
 24.6200         3.6129           0.0000          0.0000           221.67         4.17          0.0600            0.0000          22.1667       PFind                   None            0.00    0.00    None
 26.6400         3.3434           0.0000          0.0000          5317.50       100.00          0.0200            0.0000         531.7500       PFind                   None            0.00    0.00    None
 27.8800         3.1974           0.0000          0.0000           586.67        11.03          0.0600            0.0000          82.1333       PFind                   None            0.00    0.00    None
 29.8800         2.9878           0.0000          0.0000            84.17         1.58          0.0000            0.0000          11.7833       PFind                   None            0.00    0.00    None
 31.2400         2.8608           0.0000          0.0000           108.33         2.04          0.0000            0.0000          15.1667       PFind                   None            0.00    0.00    None
 32.9000         2.7201           0.0000          0.0000            33.33         0.63          0.0000            0.0000           0.0000       PFind                   None            0.00    0.00    None
 34.5200         2.5961           0.0000          0.0000            63.33         1.19          0.1000            0.0000           7.6000       PFind                   None            0.00    0.00    None
 36.1200         2.4847           0.0000          0.0000            66.67         1.25          0.1200            0.0000           8.0000       PFind                   None            0.00    0.00    None
 37.3600         2.4050           0.0000          0.0000            50.83         0.96          0.1000            0.0000           4.0667       PFind                   None            0.00    0.00    None
 39.4400         2.2828           0.0000          0.0000           165.83         3.12          0.1000            0.0000          16.5833       PFind                   None            0.00    0.00    None
 41.7400         2.1622           0.0000          0.0000            87.50         1.65          0.1000            0.0000           5.2500       PFind                   None            0.00    0.00    None
 43.9600         2.0580           0.0000          0.0000            37.50         0.71          0.0200            0.0000           2.2500       PFind                   None            0.00    0.00    None
 46.6000         1.9474           0.0000          0.0000            87.50         1.65          0.1400            0.0000           3.5000       PFind                   None            0.00    0.00    None
 49.1600         1.8518           0.0000          0.0000            28.33         0.53          0.1600            0.0000           2.8333       PFind                   None            0.00    0.00    None
 50.7200         1.7984           0.0000          0.0000            67.50         1.27          0.0400            0.0000           8.1000       PFind                   None            0.00    0.00    None
 52.3200         1.7471           0.0000          0.0000            31.67         0.60          0.1600            0.0000           3.1667       PFind                   None            0.00    0.00    None
 53.9000         1.6996           0.0000          0.0000            32.50         0.61          0.0600            0.0000           1.3000       PFind                   None            0.00    0.00    None
 55.0000         1.6682           0.0000          0.0000           184.17         3.46          0.0200            0.0000          11.0500       PFind                   None            0.00    0.00    None
 56.1800         1.6359           0.0000          0.0000            25.83         0.49          0.0600            0.0000           0.0000       PFind                   None            0.00    0.00    None
 58.6200         1.5735           0.0000          0.0000            23.33         0.44          0.0400            0.0000           0.4667       PFind                   None            0.00    0.00    None
 59.9200         1.5424           0.0000          0.0000           290.83         5.47          0.1400            0.0000          29.0833       PFind                   None            0.00    0.00    None
 61.3200         1.5105           0.0000          0.0000            32.50         0.61          0.1000            0.0000           5.2000       PFind                   None            0.00    0.00    None
 61.8800         1.4982           0.0000          0.0000            31.67         0.60          0.1600            0.0000           5.0667       PFind                   None            0.00    0.00    None
 63.0400         1.4734           0.0000          0.0000            29.17         0.55          0.0600            0.0000           0.0000       PFind                   None            0.00    0.00    None
 64.0200         1.4532           0.0000          0.0000            55.83         1.05          0.0400            0.0000           4.4667       PFind                   None            0.00    0.00    None

File: G57_pf_RT.txt
Filename:
	C:\Program Files\Thermo Electron\WinXRD\Datafiles\FIEN2\GEO\G57_RT.pk

File Created:
	February 25, 2021 - 09:50 AM

Specimen Id:
	G57_RT

Specimen Name:

Specimen Description:

Comment:
Scan Type: 2Theta Scan
Start Angle: 3 deg.
Stop Angle: 65 deg.
Num Points: 3101
Step Size: 0.02 deg.
Scan Rate: 1.000000
Scan Mode: Continuous
Wavelength: 1.540562
\Kalpha1: 1.540562	\Kalpha2: 1.544390	\Kbeta: 1.392218

Optics:
		Detector:
			 Type: Fixed Slits
		Tube:
			 Type: Fixed Slits

Datas:
Peaks:

Position        Dspace          ESD(P)          Corr.Fact       Intensity       Rel.Int.        FWHM(L)         ESD(L)          Area            Source                  Curve           Strain  CSize   CSize_Source
[deg]           [A]             [deg]           [deg]           [CPS]           [CPS]           [deg]           [deg]           [deg]           [--]                    [--]            [--]    [--]    [--]
  4.6400        19.0284           0.0000          0.0000            60.83         3.03          0.0800            0.0000           6.0833       PFind                   None            0.00    0.00    None
  5.5800        15.8248           0.0000          0.0000            65.83         3.28          0.1000            0.0000           3.9500       PFind                   None            0.00    0.00    None
  6.3200        13.9735           0.0000          0.0000            52.50         2.62          0.1200            0.0000           6.3000       PFind                   None            0.00    0.00    None
  7.1400        12.3704           0.0000          0.0000            38.33         1.91          0.0800            0.0000           3.0667       PFind                   None            0.00    0.00    None
  7.8600        11.2388           0.0000          0.0000            30.00         1.50          0.1200            0.0000           1.8000       PFind                   None            0.00    0.00    None
  8.7800        10.0631           0.0000          0.0000           336.67        16.78          0.0600            0.0000          33.6667       PFind                   None            0.00    0.00    None
  9.9400         8.8912           0.0000          0.0000            30.83         1.54          0.1600            0.0000           1.2333       PFind                   None            0.00    0.00    None
 10.7200         8.2459           0.0000          0.0000            35.00         1.74          0.1000            0.0000           1.4000       PFind                   None            0.00    0.00    None
 11.7000         7.5574           0.0000          0.0000            27.50         1.37          0.0000            0.0000           2.7500       PFind                   None            0.00    0.00    None
 12.6800         6.9754           0.0000          0.0000            38.33         1.91          0.1600            0.0000           0.7667       PFind                   None            0.00    0.00    None
 13.4600         6.5729           0.0000          0.0000            35.83         1.79          0.0400            0.0000           0.0000       PFind                   None            0.00    0.00    None
 14.2200         6.2233           0.0000          0.0000            32.50         1.62          0.0200            0.0000           0.0000       PFind                   None            0.00    0.00    None
 16.1200         5.4938           0.0000          0.0000            29.17         1.45          0.1000            0.0000           0.0000       PFind                   None            0.00    0.00    None
 18.4800         4.7972           0.0000          0.0000            47.50         2.37          0.1400            0.0000           5.7000       PFind                   None            0.00    0.00    None
 19.7600         4.4892           0.0000          0.0000            45.00         2.24          0.0600            0.0000           5.4000       PFind                   None            0.00    0.00    None
 21.9800         4.0405           0.0000          0.0000           110.00         5.48          0.0200            0.0000          11.0000       PFind                   None            0.00    0.00    None
 23.4200         3.7953           0.0000          0.0000           130.00         6.48          0.0800            0.0000          13.0000       PFind                   None            0.00    0.00    None
 24.8400         3.5814           0.0000          0.0000            60.00         2.99          0.1000            0.0000           6.0000       PFind                   None            0.00    0.00    None
 26.5600         3.3533           0.0000          0.0000          2005.83       100.00          0.1000            0.0000         200.5833       PFind                   None            0.00    0.00    None
 27.8600         3.1997           0.0000          0.0000           485.83        24.22          0.0800            0.0000          48.5833       PFind                   None            0.00    0.00    None
 29.0000         3.0764           0.0000          0.0000            66.67         3.32          0.1200            0.0000           2.6667       PFind                   None            0.00    0.00    None
 30.8200         2.8988           0.0000          0.0000           104.17         5.19          0.1200            0.0000           4.1667       PFind                   None            0.00    0.00    None
 31.7800         2.8134           0.0000          0.0000            36.67         1.83          0.1200            0.0000           3.6667       PFind                   None            0.00    0.00    None
 33.4000         2.6805           0.0000          0.0000            25.00         1.25          0.1000            0.0000           0.5000       PFind                   None            0.00    0.00    None
 35.4200         2.5322           0.0000          0.0000           112.50         5.61          0.0400            0.0000          18.0000       PFind                   None            0.00    0.00    None
 36.9000         2.4339           0.0000          0.0000            29.17         1.45          0.0600            0.0000           1.1667       PFind                   None            0.00    0.00    None
 38.1400         2.3576           0.0000          0.0000            25.00         1.25          0.0400            0.0000           0.0000       PFind                   None            0.00    0.00    None
 41.0600         2.1964           0.0000          0.0000           142.50         7.10          0.0400            0.0000           8.5500       PFind                   None            0.00    0.00    None
 43.2000         2.0924           0.0000          0.0000            30.83         1.54          0.1000            0.0000           1.8500       PFind                   None            0.00    0.00    None
 44.4200         2.0378           0.0000          0.0000           204.17        10.18          0.0800            0.0000          32.6667       PFind                   None            0.00    0.00    None
 45.7000         1.9836           0.0000          0.0000           152.50         7.60          0.0600            0.0000          18.3000       PFind                   None            0.00    0.00    None
 49.6400         1.8350           0.0000          0.0000            32.50         1.62          0.1400            0.0000           2.6000       PFind                   None            0.00    0.00    None
 51.0400         1.7879           0.0000          0.0000            52.50         2.62          0.1000            0.0000           4.2000       PFind                   None            0.00    0.00    None
 54.8000         1.6738           0.0000          0.0000           117.50         5.86          0.0400            0.0000          11.7500       PFind                   None            0.00    0.00    None
 55.7800         1.6467           0.0000          0.0000            44.17         2.20          0.1000            0.0000           7.0667       PFind                   None            0.00    0.00    None
 57.6800         1.5969           0.0000          0.0000            25.00         1.25          0.1600            0.0000           2.0000       PFind                   None            0.00    0.00    None
 60.0400         1.5396           0.0000          0.0000           125.00         6.23          0.0400            0.0000          12.5000       PFind                   None            0.00    0.00    None
 61.6600         1.5030           0.0000          0.0000            48.33         2.41          0.1200            0.0000           7.7333       PFind                   None            0.00    0.00    None
 64.1400         1.4507           0.0000          0.0000            42.50         2.12          0.1200            0.0000           5.1000       PFind                   None            0.00    0.00    None