Folder: Non-Linear-XRD-Inversion/Generating XRD fingerprints/INPUT/Detrital data

Note: Generating XRD fingerprints/INPUT/Detrital data/G19_FT.txt
Filename:
	C:\Program Files\Thermo Electron\WinXRD\Datafiles\F_HERMAN\FIEN\G19_FT.raw

File Created:
	October 09, 2019 - 08:48 AM

Specimen Id:
	G19 FT RT

Specimen Name:
	

Specimen Description:
	

Comment:
Scan Type: 2Theta Scan
Start Angle: 2 deg.
Stop Angle: 65 deg.
Num Points: 3151
Step Size: 0.02 deg.
Scan Rate: 1.000000
Scan Mode: Continuous
Wavelength: 1.540562
\Kalpha1: 1.540562	\Kalpha2: 1.544390	\Kbeta: 1.392218

Optics:
		Detector:
			 Type: Fixed Slits
		Tube: 
			 Type: Fixed Slits


Datas:
 Pos [deg]       Rate [CPS]      ESD [-]

Range 1 ---> Iteration 1
   2.000        866.67	    32.249
   2.020        805.00	    31.081
   2.040        754.17	    30.083
   2.060        819.17	    31.353
   2.080        744.17	    29.883
   2.100        805.00	    31.081
   2.120        801.67	    31.016
   2.140        750.00	    30.000
   2.160        816.67	    31.305
   2.180        767.50	    30.348
   2.200        732.50	    29.648
   2.220        768.33	    30.364
   2.240        741.67	    29.833
   2.260        749.17	    29.983
   2.280        707.50	    29.138
   2.300        612.50	    27.111
   2.320        653.33	    28.000
   2.340        627.50	    27.441
   2.360        627.50	    27.441
   2.380        654.17	    28.018
   2.400        647.50	    27.875
   2.420        652.50	    27.982
   2.440        623.33	    27.350
   2.460        604.17	    26.926
   2.480        604.17	    26.926
   2.500        601.67	    26.870
   2.520        585.83	    26.514

Note: README.md
# From XRD data to erosion rate maps
This repository contains the codes and data to reproduce the tests of our article "From XRD signal to erosion rate maps". By binning the corrected peak-area XRD data of both source- and sediment samples, we obtain concentrations for selected tracer minerals. Using a non-linear inversion approach, we are then able to invert the sediment data into erosion maps. Posterior covariance matrices and resolution are indicators of posterior uncertainty.

## Context
Understanding the spatio-temporal patterns of suspended sediment source activations is crucial for downstream risk management. Especially in glacierized catchments it is difficult to study these dynamics, as the processes driving sediment export are covered by ice and are therefore invisible. Hence, using sediment data to infer erosion rates is one of the only methods available to understand the spatial dynamics of sediment provenance in these settings.

In an earlier article, we have shown how to use a linear inversion approach to obtain erosion rate maps from detrital data ([De Doncker et al. 2020](https://onlinelibrary.wiley.com/share/DJAE2KDTVCHECMPACAVR?target=10.1002/esp.5008)). Here, to deal with the non-linear nature of erosion rate distributions, and to avoid negative posterior erosion rates, we formulate a non-linear version of the forward model and we test two inversion schemes: the steepest descent (SD) and the quasi Newtonian (QN) approach.


## Methodology

### Conceptual Workflow
1. (A&B) Sampling of source samples (representative for source areas) and suspended sediment samples at the sink of the catchment
2. (C) XRD analysis of powdered samples and correction of the raw diffractograms
3. (D&E) Binning of the peak areas in characteristic 2theta windows for the selected tracer minerals, using the RRUF database
4. Inversion using the sediment data, the source data, and a geological map

| [<img src="Workflow.png" width="350"/>](Workflow.png) | 
|:--:| 
| *Figure 1: Visual conceptual workflow.<br>Click on the image to see the full size figure.* |

### Inversion
The detrital data are a weighted average of the tracer mineral concentrations, with the weights being the erosion rates:

$d_i=\ \frac{\sum_{j=1}^{n}{A_{ij}\cdot{\exp(\varepsilon}_j)}}{\sum_{j=1}^{n}{{\exp(\varepsilon}_j)}}\ for\ i=1,\ \ldots m$

Where $d_i$ is the tracer abundance of tracer mineral i in the suspended sediments, $A_{ij}$ is the tracer abundance of tracer mineral $i$ at source position $j$ (pixel $j$), and the erosion rates are modelled in log-space: $\varepsilon_j=\log(\frac{{\dot{e}}_j}{{\dot{e}}_0})$ with  ${\dot{e}}_j$ being the erosion rate at pixel j and ${\dot{e}}_0$ is a reference erosion rate (set to 1) to respect dimensional consistency. We cast the erosion rates in log-space to impose a positivity constraint, hence making this non-linear.

The forward model reads as:

$\mathbf{d}=\mathbf{A}\ \cdot\exp(\boldsymbol{\varepsilon})$

where $\mathbf{d}$ is the sediment

File: 1_1_SEPT.txt
Position	Dspace	ESD(P)	Corr.Fact	Intensity	Rel.Int.	FWHM(L)	ESD(L)	Area
[deg]	[A]	[deg]	[deg]	[CPS]	[CPS]	[deg]	[deg]	[deg]
2.7800	31.7541	0.0000	0.0000	52.50	2.40	0.1000	0.0000	1.0500
3.0400	29.0388	0.0000	0.0000	51.67	2.36	0.0000	0.0000	2.0667
3.3600	26.2739	0.0000	0.0000	60.83	2.78	0.1400	0.0000	1.2167
3.4800	25.3682	0.0000	0.0000	44.17	2.02	0.1400	0.0000	5.3000
3.6800	23.9899	0.0000	0.0000	56.67	2.59	0.1000	0.0000	0.0000
3.9600	22.2943	0.0000	0.0000	46.67	2.13	0.1600	0.0000	0.9333
4.1000	21.5333	0.0000	0.0000	37.50	1.72	0.1600	0.0000	2.2500
4.2200	20.9212	0.0000	0.0000	35.00	1.60	0.0200	0.0000	3.5000
4.4200	19.9750	0.0000	0.0000	28.33	1.30	0.1600	0.0000	0.5667
4.6800	18.8659	0.0000	0.0000	35.00	1.60	0.1000	0.0000	2.1000
4.8400	18.2426	0.0000	0.0000	35.00	1.60	0.1400	0.0000	0.0000
5.1000	17.3131	0.0000	0.0000	28.33	1.30	0.1600	0.0000	2.2667
5.2400	16.8509	0.0000	0.0000	27.50	1.26	0.0800	0.0000	1.1000
5.3600	16.4739	0.0000	0.0000	25.00	1.14	0.0600	0.0000	2.0000
5.5400	15.9390	0.0000	0.0000	42.50	1.94	0.0400	0.0000	0.0000
5.7200	15.4378	0.0000	0.0000	32.50	1.49	0.1000	0.0000	0.0000
6.2800	14.0624	0.0000	0.0000	132.50	6.06	0.0000	0.0000	21.2000
6.6000	13.3813	0.0000	0.0000	35.83	1.64	0.1600	0.0000	5.0167
6.7600	13.0649	0.0000	0.0000	56.67	2.59	0.0000	0.0000	1.1333
6.9400	12.7265	0.0000	0.0000	57.50	2.63	0.1400	0.0000	0.0000
7.1000	12.4400	0.0000	0.0000	63.33	2.90	0.0000	0.0000	6.3333
7.2600	12.1662	0.0000	0.0000	40.83	1.87	0.1200	0.0000	6.5333
7.5800	11.6533	0.0000	0.0000	30.00	1.37	0.1200	0.0000	3.0000
7.6800	11.5018	0.0000	0.0000	32.50	1.49	0.0600	0.0000	1.3000
8.0400	10.9876	0.0000	0.0000	33.33	1.52	0.1600	0.0000	3.3333
8.2000	10.7735	0.0000	0.0000	30.00	1.37	0.0800	0.0000	0.0000
8.9200	9.9055	0.0000	0.0000	900.83	41.21	0.0200	0.0000	126.1167
9.5000	9.3020	0.0000	0.0000	70.83	3.24	0.0400	0.0000	11.3333
10.5600	8.3705	0.0000	0.0000	76.67	3.51	0.1000	0.0000	10.7333
11.5800	7.6354	0.0000	0.0000	25.83	1.18	0.0200	0.0000	0.0000
12.2200	7.2369	0.0000	0.0000	534.17	24.44	0.0600	0.0000	53.4167
12.5400	7.0530	0.0000	0.0000	461.67	21.12	0.1000	0.0000	73.8667
13.2600	6.6716	0.0000	0.0000	26.67	1.22	0.0600	0.0000	0.5333
13.4600	6.5729	0.0000	0.0000	24.17	1.11	0.1200	0.0000	1.9333
13.8800	6.3749	0.0000	0.0000	46.67	2.13	0.1400	0.0000	4.6667
15.0200	5.8935	0.0000	0.0000	24.17	1.11	0.1200	0.0000	0.0000
17.8600	4.9623	0.0000	0.0000	269.17	12.31	0.0600	0.0000	37.6833
18.6200	4.7614	0.0000	0.0000	53.33	2.44	0.0800	0.0000	7.4667
18.8600	4.7014	0.0000	0.0000	156.67	7.17	0.0000	0.0000	25.0667
20.0000	4.4359	0.0000	0.0000	29.17	1.33	0.1600	0.0000	4.6667
20.1600	4.4010	0.0000	0.0000	27.50	1.26	0.0200	0.0000	1.6500
21.0200	4.2229	0.0000	0.0000	108.33	4.96	0.1400	0.0000	15.1667
22.1400	4.0117	0.0000	0.0000	93.33	4.27	0.0200	0.0000	14.9333
23.1000	3.8471	0.0000	0.0000	29.17	1.33	0.0800	0.0000	1.1667
23.5600	3.7730	0.0000	0.0000	118.33	5.41	0.1600	0.0000	9.4667
24.3400	3.6539	0.0000	0.0000	45.00	2.06	0.0600	0.0000	5.4000
24.7000	3.6014	0.0000	0.0000	230.00	10.52	0.0400	0.0000	36.8000
25.2600	3.5228	0.0000	0.0000	230.83	10.56	0.0800	0.0000	36.9333
25.5800	3.4795	0.0000	0.0000	53.33	2.44	0.0200	0.0000	4.2667
26.7400	3.3311	0.0000	0.0000	558.33	25.54	0.0200	0.0000	89.3333
26.9600	3.3044	0.0000	0.0000	609.17	27.87	0.0000	0.0000	97.4667
27.6400	3.2247	0.0000	0.0000	72.50	3.32	0.1000	0.0000	11.6000
28.0600	3.1773	0.0000	0.0000	242.50	11.09	0.0000	0.0000	38.8000
28.7400	3.1037	0.0000	0.0000	73.33	3.35	0.1600	0.0000	10.2667
30.0000	2.9761	0.0000	0.0000	43.33	1.98	0.1600	0.0000	4.3333
30.3800	2.9398	0.0000	0.0000	45.83	2.10	0.1600	0.0000	0.9167
30.6000	2.9191	0.0000	0.0000	32.50	1.49	0.0800	0.0000	5.2000
31.4000	2.8466	0.0000	0.0000	37.50	1.72	0.0800	0.0000	5.2500
31.6800	2.8220	0.0000	0.0000	55.00	2.52	0.1600	0.0000	4.4000
32.2200	2.7760	0.0000	0.0000	30.00	1.37	0.0600	0.0000	1.8000
32.3600	2.7643	0.0000	0.0000	35.00	1.60	0.1600	0.0000	3.5000
34.3800	2.6063	0.0000	0.0000	38.33	1.75	0.1600	0.0000	3.0667
34.6400	2.5874	0.0000	0.0000	25.83	1.18	0.0800	0.0000	0.5167
35.1200	2.5531	0.0000	0.0000	27.50	1.26	0.1600	0.0000	3.8500
35.6000	2.5198	0.0000	0.0000	29.17	1.33	0.1600	0.0000	1.7500
36.1600	2.4820	0.0000	0.0000	46.67	2.13	0.1400	0.0000	2.8000
36.2600	2.4754	0.0000	0.0000	30.00	1.37	0.0600	0.0000	2.4000
36.6800	2.4480	0.0000	0.0000	66.67	3.05	0.1000	0.0000	8.0000
38.2600	2.3505	0.0000	0.0000	2185.83	100.00	0.0200	0.0000	349.7333
39.5400	2.2773	0.0000	0.0000	30.00	1.37	0.1400	0.0000	2.4000
39.6000	2.2740	0.0000	0.0000	25.00	1.14	0.1000	0.0000	4.0000
39.9000	2.2576	0.0000	0.0000	28.33	1.30	0.1000	0.0000	2.8333
42.5400	2.1234	0.0000	0.0000	37.50	1.72	0.1600	0.0000	6.0000
44.4400	2.0369	0.0000	0.0000	1255.83	57.45	0.0400	0.0000	200.9333
45.7200	1.9828	0.0000	0.0000	168.33	7.70	0.0800	0.0000	26.9333
47.2800	1.9210	0.0000	0.0000	30.00	1.37	0.0200	0.0000	0.6000
48.3000	1.8827	0.0000	0.0000	25.00	1.14	0.0400	0.0000	2.0000
50.2600	1.8138	0.0000	0.0000	41.67	1.91	0.0800	0.0000	2.5000
50.7200	1.7984	0.0000	0.0000	89.17	4.08	0.0000	0.0000	7.1333
50.8600	1.7938	0.0000	0.0000	57.50	2.63	0.1600	0.0000	1.1500
54.9600	1.6693	0.0000	0.0000	35.83	1.64	0.1600	0.0000	1.4333
60.0600	1.5392	0.0000	0.0000	30.00	1.37	0.0800	0.0000	3.0000
62.7200	1.4801	0.0000	0.0000	32.50	1.49	0.1400	0.0000	1.9500
64.5200	1.4431	0.0000	0.0000	673.33	30.80	0.1200	0.0000	80.8000
64.7200	1.4391	0.0000	0.0000	395.83	18.11	0.0200	0.0000	47.5000

File: 1_1_SEPT_PF_FILTER.txt
Filename:
	C:\Program Files\Thermo Electron\WinXRD\Datafiles\FIEN\1_1_SEPT_FILTER.pk

File Created:
	April 15, 2019 - 01:14 PM

Specimen Id:
	1.1 SEPT FILTER

Specimen Name:

Specimen Description:

Comment:
Scan Type: 2Theta Scan
Start Angle: 1 deg.
Stop Angle: 65 deg.
Num Points: 3201
Step Size: 0.02 deg.
Scan Rate: 1.000000
Scan Mode: Continuous
Wavelength: 1.540562
\Kalpha1: 1.540562	\Kalpha2: 1.544390	\Kbeta: 1.392218

Optics:
		Detector:
			 Type: Fixed Slits
		Tube:
			 Type: Fixed Slits

Datas:
Peaks:

Position        Dspace          ESD(P)          Corr.Fact       Intensity       Rel.Int.        FWHM(L)         ESD(L)          Area            Source                  Curve           Strain  CSize   CSize_Source
[deg]           [A]             [deg]           [deg]           [CPS]           [CPS]           [deg]           [deg]           [deg]           [--]                    [--]            [--]    [--]    [--]
  2.7800        31.7541           0.0000          0.0000            52.50         2.40          0.1000            0.0000           1.0500       PFind                   None            0.00    0.00    None
  3.3600        26.2739           0.0000          0.0000            60.83         2.78          0.1400            0.0000           1.2167       PFind                   None            0.00    0.00    None
  3.6800        23.9899           0.0000          0.0000            56.67         2.59          0.1000            0.0000           0.0000       PFind                   None            0.00    0.00    None
  4.1000        21.5333           0.0000          0.0000            37.50         1.72          0.1600            0.0000           2.2500       PFind                   None            0.00    0.00    None
  4.4200        19.9750           0.0000          0.0000            28.33         1.30          0.1600            0.0000           0.5667       PFind                   None            0.00    0.00    None
  4.8400        18.2426           0.0000          0.0000            35.00         1.60          0.1400            0.0000           0.0000       PFind                   None            0.00    0.00    None
  5.2400        16.8509           0.0000          0.0000            27.50         1.26          0.0800            0.0000           1.1000       PFind                   None            0.00    0.00    None
  5.5400        15.9390           0.0000          0.0000            42.50         1.94          0.0400            0.0000           0.0000       PFind                   None            0.00    0.00    None
  6.2800        14.0624           0.0000          0.0000           132.50         6.06          0.0000            0.0000          21.2000       PFind                   None            0.00    0.00    None
  6.7600        13.0649           0.0000          0.0000            56.67         2.59          0.0000            0.0000           1.1333       PFind                   None            0.00    0.00    None
  7.1000        12.4400           0.0000          0.0000            63.33         2.90          0.0000            0.0000           6.3333       PFind                   None            0.00    0.00    None
  7.5800        11.6533           0.0000          0.0000            30.00         1.37          0.1200            0.0000           3.0000       PFind                   None            0.00    0.00    None
  8.0400        10.9876           0.0000          0.0000            33.33         1.52          0.1600            0.0000           3.3333       PFind                   None            0.00    0.00    None
  8.9200         9.9055           0.0000          0.0000           900.83        41.21          0.0200            0.0000         126.1167       PFind                   None            0.00    0.00    None
 10.5600         8.3705           0.0000          0.0000            76.67         3.51          0.1000            0.0000          10.7333       PFind                   None            0.00    0.00    None
 12.2200         7.2369           0.0000          0.0000           534.17        24.44          0.0600            0.0000          53.4167       PFind                   None            0.00    0.00    None
 13.2600         6.6716           0.0000          0.0000            26.67         1.22          0.0600            0.0000           0.5333       PFind                   None            0.00    0.00    None
 13.8800         6.3749           0.0000          0.0000            46.67         2.13          0.1400            0.0000           4.6667       PFind                   None            0.00    0.00    None
 17.8600         4.9623           0.0000          0.0000           269.17        12.31          0.0600            0.0000          37.6833       PFind                   None            0.00    0.00    None
 18.8600         4.7014           0.0000          0.0000           156.67         7.17          0.0000            0.0000          25.0667       PFind                   None            0.00    0.00    None
 20.1600         4.4010           0.0000          0.0000            27.50         1.26          0.0200            0.0000           1.6500       PFind                   None            0.00    0.00    None
 22.1400         4.0117           0.0000          0.0000            93.33         4.27          0.0200            0.0000          14.9333       PFind                   None            0.00    0.00    None
 23.5600         3.7730           0.0000          0.0000           118.33         5.41          0.1600            0.0000           9.4667       PFind                   None            0.00    0.00    None
 24.7000         3.6014           0.0000          0.0000           230.00        10.52          0.0400            0.0000          36.8000       PFind                   None            0.00    0.00    None
 25.5800         3.4795           0.0000          0.0000            53.33         2.44          0.0200            0.0000           4.2667       PFind                   None            0.00    0.00    None
 26.9600         3.3044           0.0000          0.0000           609.17        27.87          0.0000            0.0000          97.4667       PFind                   None            0.00    0.00    None
 28.0600         3.1773           0.0000          0.0000           242.50        11.09          0.0000            0.0000          38.8000       PFind                   None            0.00    0.00    None
 30.0000         2.9761           0.0000          0.0000            43.33         1.98          0.1600            0.0000           4.3333       PFind                   None            0.00    0.00    None
 30.6000         2.9191           0.0000          0.0000            32.50         1.49          0.0800            0.0000           5.2000       PFind                   None            0.00    0.00    None
 31.6800         2.8220           0.0000          0.0000            55.00         2.52          0.1600            0.0000           4.4000       PFind                   None            0.00    0.00    None
 32.3600         2.7643           0.0000          0.0000            35.00         1.60          0.1600            0.0000           3.5000       PFind                   None            0.00    0.00    None
 34.6400         2.5874           0.0000          0.0000            25.83         1.18          0.0800            0.0000           0.5167       PFind                   None            0.00    0.00    None
 35.6000         2.5198           0.0000          0.0000            29.17         1.33          0.1600            0.0000           1.7500       PFind                   None            0.00    0.00    None
 36.2600         2.4754           0.0000          0.0000            30.00         1.37          0.0600            0.0000           2.4000       PFind                   None            0.00    0.00    None
 38.2600         2.3505           0.0000          0.0000          2185.83       100.00          0.0200            0.0000         349.7333       PFind                   None            0.00    0.00    None
 39.6000         2.2740           0.0000          0.0000            25.00         1.14          0.1000            0.0000           4.0000       PFind                   None            0.00    0.00    None
 42.5400         2.1234           0.0000          0.0000            37.50         1.72          0.1600            0.0000           6.0000       PFind                   None            0.00    0.00    None
 45.7200         1.9828           0.0000          0.0000           168.33         7.70          0.0800            0.0000          26.9333       PFind                   None            0.00    0.00    None
 48.3000         1.8827           0.0000          0.0000            25.00         1.14          0.0400            0.0000           2.0000       PFind                   None            0.00    0.00    None
 50.7200         1.7984           0.0000          0.0000            89.17         4.08          0.0000            0.0000           7.1333       PFind                   None            0.00    0.00    None
 54.9600         1.6693           0.0000          0.0000            35.83         1.64          0.1600            0.0000           1.4333       PFind                   None            0.00    0.00    None
 62.7200         1.4801           0.0000          0.0000            32.50         1.49          0.1400            0.0000           1.9500       PFind                   None            0.00    0.00    None
 64.7200         1.4391           0.0000          0.0000           395.83        18.11          0.0200            0.0000          47.5000       PFind                   None            0.00    0.00    None