Folder: Non-Linear-XRD-Inversion/Generating XRD fingerprints/INPUT/Detrital data (part 35)

File: G42_pf_RT.txt
Filename:
	C:\Program Files\Thermo Electron\WinXRD\Datafiles\FIEN2\GEO\G42_RT.pk

File Created:
	February 25, 2021 - 09:43 AM

Specimen Id:
	G42_RT

Specimen Name:

Specimen Description:

Comment:
Scan Type: 2Theta Scan
Start Angle: 3 deg.
Stop Angle: 65 deg.
Num Points: 3101
Step Size: 0.02 deg.
Scan Rate: 1.000000
Scan Mode: Continuous
Wavelength: 1.540562
\Kalpha1: 1.540562	\Kalpha2: 1.544390	\Kbeta: 1.392218

Optics:
		Detector:
			 Type: Fixed Slits
		Tube:
			 Type: Fixed Slits

Datas:
Peaks:

Position        Dspace          ESD(P)          Corr.Fact       Intensity       Rel.Int.        FWHM(L)         ESD(L)          Area            Source                  Curve           Strain  CSize   CSize_Source
[deg]           [A]             [deg]           [deg]           [CPS]           [CPS]           [deg]           [deg]           [deg]           [--]                    [--]            [--]    [--]    [--]
  4.7800        18.4714           0.0000          0.0000            60.83         3.27          0.1600            0.0000           3.6500       PFind                   None            0.00    0.00    None
  5.2200        16.9154           0.0000          0.0000            47.50         2.55          0.1600            0.0000           0.9500       PFind                   None            0.00    0.00    None
  6.1800        14.2897           0.0000          0.0000           131.67         7.07          0.0600            0.0000          13.1667       PFind                   None            0.00    0.00    None
  6.9600        12.6899           0.0000          0.0000            45.83         2.46          0.1200            0.0000           5.5000       PFind                   None            0.00    0.00    None
  7.6200        11.5922           0.0000          0.0000            35.83         1.92          0.0200            0.0000           2.8667       PFind                   None            0.00    0.00    None
  8.3600        10.5677           0.0000          0.0000            37.50         2.01          0.0400            0.0000           2.2500       PFind                   None            0.00    0.00    None
  9.5600         9.2437           0.0000          0.0000            30.83         1.66          0.0800            0.0000           1.2333       PFind                   None            0.00    0.00    None
 10.4600         8.4503           0.0000          0.0000           175.00         9.40          0.1000            0.0000           7.0000       PFind                   None            0.00    0.00    None
 11.8800         7.4433           0.0000          0.0000            39.17         2.10          0.1000            0.0000           4.7000       PFind                   None            0.00    0.00    None
 13.3600         6.6219           0.0000          0.0000            27.50         1.48          0.1400            0.0000           1.6500       PFind                   None            0.00    0.00    None
 14.9800         5.9092           0.0000          0.0000            35.00         1.88          0.1400            0.0000           4.2000       PFind                   None            0.00    0.00    None
 15.9200         5.5623           0.0000          0.0000            28.33         1.52          0.1000            0.0000           1.7000       PFind                   None            0.00    0.00    None
 18.4600         4.8023           0.0000          0.0000            43.33         2.33          0.0400            0.0000           3.4667       PFind                   None            0.00    0.00    None
 20.0600         4.4227           0.0000          0.0000            26.67         1.43          0.0400            0.0000           1.6000       PFind                   None            0.00    0.00    None
 22.7800         3.9004           0.0000          0.0000            48.33         2.60          0.1200            0.0000           4.8333       PFind                   None            0.00    0.00    None
 24.2400         3.6687           0.0000          0.0000           109.17         5.86          0.0400            0.0000           8.7333       PFind                   None            0.00    0.00    None
 25.5600         3.4822           0.0000          0.0000            95.00         5.10          0.0800            0.0000          15.2000       PFind                   None            0.00    0.00    None
 27.4400         3.2477           0.0000          0.0000           185.00         9.93          0.1200            0.0000          22.2000       PFind                   None            0.00    0.00    None
 28.5400         3.1250           0.0000          0.0000           116.67         6.26          0.0400            0.0000          14.0000       PFind                   None            0.00    0.00    None
 30.7800         2.9025           0.0000          0.0000            62.50         3.36          0.0800            0.0000          10.0000       PFind                   None            0.00    0.00    None
 32.0000         2.7945           0.0000          0.0000            56.67         3.04          0.0600            0.0000           7.9333       PFind                   None            0.00    0.00    None
 34.9600         2.5644           0.0000          0.0000           103.33         5.55          0.0600            0.0000          16.5333       PFind                   None            0.00    0.00    None
 35.9800         2.4940           0.0000          0.0000            38.33         2.06          0.0800            0.0000           2.3000       PFind                   None            0.00    0.00    None
 37.8400         2.3756           0.0000          0.0000            28.33         1.52          0.0200            0.0000           2.2667       PFind                   None            0.00    0.00    None
 40.2200         2.2403           0.0000          0.0000            65.83         3.53          0.0400            0.0000           6.5833       PFind                   None            0.00    0.00    None
 42.8000         2.1111           0.0000          0.0000            60.83         3.27          0.1000            0.0000           2.4333       PFind                   None            0.00    0.00    None
 44.0800         2.0527           0.0000          0.0000            30.00         1.61          0.0400            0.0000           4.2000       PFind                   None            0.00    0.00    None
 45.5400         1.9902           0.0000          0.0000           131.67         7.07          0.0600            0.0000          21.0667       PFind                   None            0.00    0.00    None
 48.2200         1.8857           0.0000          0.0000            36.67         1.97          0.1000            0.0000           2.2000       PFind                   None            0.00    0.00    None
 50.5400         1.8044           0.0000          0.0000            78.33         4.21          0.0200            0.0000          10.9667       PFind                   None            0.00    0.00    None
 52.2000         1.7509           0.0000          0.0000            46.67         2.51          0.1600            0.0000           6.5333       PFind                   None            0.00    0.00    None
 53.1200         1.7227           0.0000          0.0000            41.67         2.24          0.0800            0.0000           2.5000       PFind                   None            0.00    0.00    None
 55.2200         1.6621           0.0000          0.0000            54.17         2.91          0.1200            0.0000           4.3333       PFind                   None            0.00    0.00    None
 56.7600         1.6206           0.0000          0.0000            29.17         1.57          0.0800            0.0000           0.0000       PFind                   None            0.00    0.00    None
 58.3000         1.5814           0.0000          0.0000            26.67         1.43          0.0800            0.0000           0.0000       PFind                   None            0.00    0.00    None
 59.8800         1.5434           0.0000          0.0000           205.83        11.05          0.0400            0.0000          20.5833       PFind                   None            0.00    0.00    None
 61.4000         1.5087           0.0000          0.0000            52.50         2.82          0.0800            0.0000           8.4000       PFind                   None            0.00    0.00    None
 62.7200         1.4801           0.0000          0.0000            27.50         1.48          0.0000            0.0000           0.0000       PFind                   None            0.00    0.00    None
 63.9600         1.4544           0.0000          0.0000            50.00         2.68          0.1600            0.0000           5.0000       PFind                   None            0.00    0.00    None

File: G44_pf_RT.txt
Filename:
	C:\Program Files\Thermo Electron\WinXRD\Datafiles\FIEN2\GEO\G44_RT.pk

File Created:
	February 25, 2021 - 09:44 AM

Specimen Id:
	G44_RT

Specimen Name:

Specimen Description:

Comment:
Scan Type: 2Theta Scan
Start Angle: 3 deg.
Stop Angle: 65 deg.
Num Points: 3101
Step Size: 0.02 deg.
Scan Rate: 1.000000
Scan Mode: Continuous
Wavelength: 1.540562
\Kalpha1: 1.540562	\Kalpha2: 1.544390	\Kbeta: 1.392218

Optics:
		Detector:
			 Type: Fixed Slits
		Tube:
			 Type: Fixed Slits

Datas:
Peaks:

Position        Dspace          ESD(P)          Corr.Fact       Intensity       Rel.Int.        FWHM(L)         ESD(L)          Area            Source                  Curve           Strain  CSize   CSize_Source
[deg]           [A]             [deg]           [deg]           [CPS]           [CPS]           [deg]           [deg]           [deg]           [--]                    [--]            [--]    [--]    [--]
  4.9200        17.9461           0.0000          0.0000            52.50         1.92          0.1000            0.0000           5.2500       PFind                   None            0.00    0.00    None
  5.5200        15.9967           0.0000          0.0000            56.67         2.07          0.0800            0.0000           2.2667       PFind                   None            0.00    0.00    None
  6.5000        13.5869           0.0000          0.0000            49.17         1.79          0.1000            0.0000           1.9667       PFind                   None            0.00    0.00    None
  6.8800        12.8373           0.0000          0.0000            54.17         1.98          0.1200            0.0000           0.0000       PFind                   None            0.00    0.00    None
  7.5200        11.7462           0.0000          0.0000            28.33         1.03          0.1200            0.0000           2.8333       PFind                   None            0.00    0.00    None
  8.0200        11.0149           0.0000          0.0000            38.33         1.40          0.0600            0.0000           3.8333       PFind                   None            0.00    0.00    None
  8.8400         9.9949           0.0000          0.0000           690.83        25.21          0.0600            0.0000          55.2667       PFind                   None            0.00    0.00    None
 10.0400         8.8029           0.0000          0.0000            30.00         1.09          0.1200            0.0000           0.0000       PFind                   None            0.00    0.00    None
 10.9400         8.0806           0.0000          0.0000            31.67         1.16          0.0800            0.0000           1.2667       PFind                   None            0.00    0.00    None
 12.1600         7.2725           0.0000          0.0000           223.33         8.15          0.0200            0.0000          17.8667       PFind                   None            0.00    0.00    None
 13.3200         6.6417           0.0000          0.0000            32.50         1.19          0.0800            0.0000           0.6500       PFind                   None            0.00    0.00    None
 13.8200         6.4025           0.0000          0.0000            61.67         2.25          0.1400            0.0000           0.0000       PFind                   None            0.00    0.00    None
 15.8400         5.5902           0.0000          0.0000            25.83         0.94          0.0800            0.0000           0.5167       PFind                   None            0.00    0.00    None
 16.7400         5.2917           0.0000          0.0000            26.67         0.97          0.0200            0.0000           1.6000       PFind                   None            0.00    0.00    None
 18.5200         4.7869           0.0000          0.0000            43.33         1.58          0.0400            0.0000           0.0000       PFind                   None            0.00    0.00    None
 19.2000         4.6189           0.0000          0.0000            26.67         0.97          0.0200            0.0000           1.0667       PFind                   None            0.00    0.00    None
 20.5600         4.3163           0.0000          0.0000            32.50         1.19          0.0400            0.0000           2.6000       PFind                   None            0.00    0.00    None
 21.3800         4.1526           0.0000          0.0000            25.00         0.91          0.0600            0.0000           0.5000       PFind                   None            0.00    0.00    None
 22.3400         3.9762           0.0000          0.0000            25.00         0.91          0.1200            0.0000           0.5000       PFind                   None            0.00    0.00    None
 23.8800         3.7232           0.0000          0.0000            46.67         1.70          0.0400            0.0000           4.6667       PFind                   None            0.00    0.00    None
 25.1400         3.5394           0.0000          0.0000           155.83         5.69          0.1600            0.0000          18.7000       PFind                   None            0.00    0.00    None
 26.6000         3.3483           0.0000          0.0000          2740.00       100.00          0.1000            0.0000         274.0000       PFind                   None            0.00    0.00    None
 27.8800         3.1974           0.0000          0.0000           350.83        12.80          0.1400            0.0000          42.1000       PFind                   None            0.00    0.00    None
 28.6000         3.1186           0.0000          0.0000            75.00         2.74          0.0000            0.0000           9.0000       PFind                   None            0.00    0.00    None
 30.4600         2.9322           0.0000          0.0000            76.67         2.80          0.0200            0.0000           3.0667       PFind                   None            0.00    0.00    None
 31.5400         2.8342           0.0000          0.0000            47.50         1.73          0.1400            0.0000           5.7000       PFind                   None            0.00    0.00    None
 33.8800         2.6437           0.0000          0.0000            25.83         0.94          0.0600            0.0000           1.5500       PFind                   None            0.00    0.00    None
 34.6200         2.5888           0.0000          0.0000            50.83         1.86          0.0800            0.0000           8.1333       PFind                   None            0.00    0.00    None
 35.8600         2.5021           0.0000          0.0000            25.83         0.94          0.0200            0.0000           2.0667       PFind                   None            0.00    0.00    None
 37.3000         2.4087           0.0000          0.0000           209.17         7.63          0.1200            0.0000           8.3667       PFind                   None            0.00    0.00    None
 38.8800         2.3144           0.0000          0.0000            25.83         0.94          0.0400            0.0000           0.0000       PFind                   None            0.00    0.00    None
 40.0200         2.2511           0.0000          0.0000            39.17         1.43          0.0600            0.0000           3.9167       PFind                   None            0.00    0.00    None
 41.1800         2.1903           0.0000          0.0000            32.50         1.19          0.0400            0.0000           3.2500       PFind                   None            0.00    0.00    None
 42.4200         2.1291           0.0000          0.0000           193.33         7.06          0.0800            0.0000          15.4667       PFind                   None            0.00    0.00    None
 43.8200         2.0643           0.0000          0.0000            56.67         2.07          0.0200            0.0000           4.5333       PFind                   None            0.00    0.00    None
 45.5800         1.9886           0.0000          0.0000           251.67         9.18          0.0000            0.0000          40.2667       PFind                   None            0.00    0.00    None
 47.9400         1.8960           0.0000          0.0000            44.17         1.61          0.1200            0.0000           3.5333       PFind                   None            0.00    0.00    None
 50.1200         1.8186           0.0000          0.0000           505.83        18.46          0.0400            0.0000          40.4667       PFind                   None            0.00    0.00    None
 51.2200         1.7821           0.0000          0.0000           174.17         6.36          0.0800            0.0000          10.4500       PFind                   None            0.00    0.00    None
 52.9000         1.7293           0.0000          0.0000            27.50         1.00          0.0600            0.0000           1.1000       PFind                   None            0.00    0.00    None
 54.6000         1.6795           0.0000          0.0000            27.50         1.00          0.1400            0.0000           0.0000       PFind                   None            0.00    0.00    None
 55.2800         1.6604           0.0000          0.0000            65.00         2.37          0.0800            0.0000           3.9000       PFind                   None            0.00    0.00    None
 56.0000         1.6407           0.0000          0.0000            42.50         1.55          0.0600            0.0000           3.4000       PFind                   None            0.00    0.00    None
 57.6400         1.5979           0.0000          0.0000            25.83         0.94          0.1200            0.0000           0.5167       PFind                   None            0.00    0.00    None
 59.0600         1.5628           0.0000          0.0000            30.00         1.09          0.0800            0.0000           0.6000       PFind                   None            0.00    0.00    None
 60.6200         1.5263           0.0000          0.0000            29.17         1.06          0.0400            0.0000           3.5000       PFind                   None            0.00    0.00    None
 61.3000         1.5110           0.0000          0.0000            25.83         0.94          0.0800            0.0000           1.5500       PFind                   None            0.00    0.00    None
 64.0200         1.4532           0.0000          0.0000            76.67         2.80          0.0000            0.0000           6.1333       PFind                   None            0.00    0.00    None
 64.8200         1.4372           0.0000          0.0000            28.33         1.03          0.0600            0.0000           1.7000       PFind                   None            0.00    0.00    None