Folder: Non-Linear-XRD-Inversion/Generating XRD fingerprints/INPUT/Detrital data (part 9)

File: 10_2_AUG.txt
Position	Dspace	ESD(P)	Corr.Fact	Intensity	Rel.Int.	FWHM(L)	ESD(L)	Area
[deg]	[A]	[deg]	[deg]	[CPS]	[CPS]	[deg]	[deg]	[deg]
2.6400	33.4377	0.0000	0.0000	70.00	3.75	0.1000	0.0000	4.2000
2.6800	32.9387	0.0000	0.0000	60.83	3.26	0.0200	0.0000	9.7333
2.8600	30.8660	0.0000	0.0000	64.17	3.44	0.0600	0.0000	10.2667
3.1400	28.1142	0.0000	0.0000	54.17	2.90	0.1600	0.0000	2.1667
3.2400	27.2467	0.0000	0.0000	62.50	3.35	0.1600	0.0000	8.7500
3.3600	26.2739	0.0000	0.0000	61.67	3.31	0.0400	0.0000	0.0000
3.6000	24.5228	0.0000	0.0000	47.50	2.55	0.0600	0.0000	6.6500
3.7000	23.8603	0.0000	0.0000	78.33	4.20	0.1600	0.0000	1.5667
3.7600	23.4797	0.0000	0.0000	55.83	2.99	0.1200	0.0000	0.0000
3.9000	22.6371	0.0000	0.0000	47.50	2.55	0.1600	0.0000	3.8000
4.0600	21.7454	0.0000	0.0000	43.33	2.32	0.0800	0.0000	6.0667
4.2000	21.0208	0.0000	0.0000	43.33	2.32	0.0400	0.0000	0.8667
4.8600	18.1675	0.0000	0.0000	45.83	2.46	0.0800	0.0000	3.6667
5.6200	15.7123	0.0000	0.0000	42.50	2.28	0.0400	0.0000	2.5500
5.7400	15.3841	0.0000	0.0000	58.33	3.13	0.0400	0.0000	4.6667
6.1200	14.4297	0.0000	0.0000	520.83	27.91	0.0800	0.0000	72.9167
6.4800	13.6288	0.0000	0.0000	58.33	3.13	0.1000	0.0000	4.6667
6.7200	13.1426	0.0000	0.0000	40.00	2.14	0.1200	0.0000	0.0000
8.8400	9.9949	0.0000	0.0000	899.17	48.19	0.1400	0.0000	71.9333
9.1600	9.6465	0.0000	0.0000	104.17	5.58	0.1000	0.0000	6.2500
9.4200	9.3808	0.0000	0.0000	240.00	12.86	0.0600	0.0000	14.4000
10.5200	8.4023	0.0000	0.0000	201.67	10.81	0.0800	0.0000	12.1000
12.1600	7.2725	0.0000	0.0000	1865.83	100.00	0.0600	0.0000	111.9500
12.3000	7.1900	0.0000	0.0000	747.50	40.06	0.0200	0.0000	119.6000
12.4400	7.1094	0.0000	0.0000	623.33	33.41	0.0000	0.0000	74.8000
13.6200	6.4960	0.0000	0.0000	40.00	2.14	0.0600	0.0000	3.2000
13.8400	6.3933	0.0000	0.0000	51.67	2.77	0.1600	0.0000	8.2667
17.7800	4.9844	0.0000	0.0000	376.67	20.19	0.0600	0.0000	37.6667
18.5000	4.7920	0.0000	0.0000	316.67	16.97	0.0800	0.0000	31.6667
18.7200	4.7362	0.0000	0.0000	275.83	14.78	0.0600	0.0000	44.1333
18.9400	4.6817	0.0000	0.0000	54.17	2.90	0.1600	0.0000	6.5000
20.8200	4.2630	0.0000	0.0000	285.00	15.27	0.0800	0.0000	22.8000
22.0200	4.0333	0.0000	0.0000	109.17	5.85	0.0800	0.0000	8.7333
22.8600	3.8870	0.0000	0.0000	46.67	2.50	0.1600	0.0000	4.6667
23.0400	3.8570	0.0000	0.0000	41.67	2.23	0.1400	0.0000	1.6667
23.5000	3.7825	0.0000	0.0000	76.67	4.11	0.1000	0.0000	7.6667
23.8000	3.7355	0.0000	0.0000	43.33	2.32	0.1000	0.0000	3.4667
24.2400	3.6687	0.0000	0.0000	102.50	5.49	0.0400	0.0000	8.2000
24.5800	3.6187	0.0000	0.0000	955.83	51.23	0.0000	0.0000	152.9333
25.0800	3.5477	0.0000	0.0000	440.83	23.63	0.0200	0.0000	70.5333
25.5400	3.4848	0.0000	0.0000	151.67	8.13	0.1600	0.0000	24.2667
26.5800	3.3508	0.0000	0.0000	1589.17	85.17	0.1600	0.0000	158.9167
26.8600	3.3165	0.0000	0.0000	1155.83	61.95	0.0400	0.0000	138.7000
27.4800	3.2431	0.0000	0.0000	501.67	26.89	0.1400	0.0000	50.1667
27.8600	3.1997	0.0000	0.0000	361.67	19.38	0.0800	0.0000	57.8667
28.0800	3.1751	0.0000	0.0000	217.50	11.66	0.1200	0.0000	21.7500
28.5800	3.1207	0.0000	0.0000	330.00	17.69	0.1400	0.0000	39.6000
29.8000	2.9957	0.0000	0.0000	99.17	5.31	0.1000	0.0000	13.8833
30.2000	2.9569	0.0000	0.0000	65.00	3.48	0.1400	0.0000	10.4000
30.5000	2.9285	0.0000	0.0000	52.50	2.81	0.0800	0.0000	3.1500
30.9000	2.8915	0.0000	0.0000	77.50	4.15	0.1600	0.0000	10.8500
31.1600	2.8679	0.0000	0.0000	104.17	5.58	0.0800	0.0000	16.6667
31.4800	2.8395	0.0000	0.0000	84.17	4.51	0.0800	0.0000	13.4667
33.0800	2.7057	0.0000	0.0000	137.50	7.37	0.1200	0.0000	5.5000
34.5600	2.5932	0.0000	0.0000	1311.67	70.30	0.1600	0.0000	26.2333
34.9000	2.5687	0.0000	0.0000	74.17	3.97	0.1600	0.0000	10.3833
35.1400	2.5517	0.0000	0.0000	59.17	3.17	0.1400	0.0000	5.9167
35.6000	2.5198	0.0000	0.0000	965.83	51.76	0.1400	0.0000	38.6333
36.1000	2.4860	0.0000	0.0000	74.17	3.97	0.1000	0.0000	10.3833
36.5000	2.4597	0.0000	0.0000	255.00	13.67	0.0600	0.0000	30.6000
36.7000	2.4467	0.0000	0.0000	311.67	16.70	0.0000	0.0000	37.4000
37.2000	2.4150	0.0000	0.0000	62.50	3.35	0.1600	0.0000	7.5000
37.5400	2.3939	0.0000	0.0000	46.67	2.50	0.1000	0.0000	7.4667
37.6400	2.3878	0.0000	0.0000	50.83	2.72	0.1000	0.0000	8.1333
39.4000	2.2851	0.0000	0.0000	69.17	3.71	0.1200	0.0000	5.5333
40.2600	2.2382	0.0000	0.0000	173.33	9.29	0.1000	0.0000	6.9333
41.7200	2.1632	0.0000	0.0000	76.67	4.11	0.1600	0.0000	12.2667
42.4000	2.1301	0.0000	0.0000	88.33	4.73	0.0800	0.0000	12.3667
43.6000	2.0742	0.0000	0.0000	74.17	3.97	0.1200	0.0000	7.4167
44.9000	2.0171	0.0000	0.0000	40.00	2.14	0.1000	0.0000	4.8000
45.0600	2.0103	0.0000	0.0000	45.83	2.46	0.0600	0.0000	5.5000
45.5800	1.9886	0.0000	0.0000	392.50	21.04	0.0800	0.0000	62.8000
47.1200	1.9271	0.0000	0.0000	40.00	2.14	0.1000	0.0000	2.4000
49.7200	1.8322	0.0000	0.0000	50.83	2.72	0.1400	0.0000	5.0833
49.9000	1.8261	0.0000	0.0000	55.00	2.95	0.1200	0.0000	8.8000
50.1000	1.8192	0.0000	0.0000	277.50	14.87	0.0600	0.0000	22.2000
50.5800	1.8031	0.0000	0.0000	180.00	9.65	0.1600	0.0000	10.8000
51.1400	1.7847	0.0000	0.0000	57.50	3.08	0.1400	0.0000	4.6000
51.2600	1.7808	0.0000	0.0000	54.17	2.90	0.1200	0.0000	5.4167
54.3400	1.6869	0.0000	0.0000	45.83	2.46	0.0800	0.0000	1.8333
54.8200	1.6732	0.0000	0.0000	64.17	3.44	0.1600	0.0000	5.1333
58.9600	1.5652	0.0000	0.0000	50.00	2.68	0.1200	0.0000	2.0000
59.1800	1.5599	0.0000	0.0000	50.00	2.68	0.1200	0.0000	7.0000
59.9000	1.5429	0.0000	0.0000	235.00	12.59	0.1600	0.0000	18.8000
60.0800	1.5387	0.0000	0.0000	159.17	8.53	0.1000	0.0000	15.9167
61.5800	1.5048	0.0000	0.0000	40.83	2.19	0.0800	0.0000	4.0833
64.0000	1.4536	0.0000	0.0000	63.33	3.39	0.1400	0.0000	3.8000
64.1800	1.4499	0.0000	0.0000	51.67	2.77	0.0400	0.0000	6.2000

File: 10_2_AUG_0.txt
Position	Dspace	ESD(P)	Corr.Fact	Intensity	Rel.Int.	FWHM(L)	ESD(L)	Area
[deg]	[A]	[deg]	[deg]	[CPS]	[CPS]	[deg]	[deg]	[deg]
2.6400	33.4377	0.0000	0.0000	68.33	3.11	0.1400	0.0000	5.4667
2.8600	30.8660	0.0000	0.0000	46.67	2.12	0.1200	0.0000	3.7333
3.0600	28.8491	0.0000	0.0000	48.33	2.20	0.1000	0.0000	3.8667
3.1800	27.7607	0.0000	0.0000	50.83	2.31	0.1200	0.0000	2.0333
3.3800	26.1185	0.0000	0.0000	53.33	2.43	0.1000	0.0000	5.3333
3.6200	24.3874	0.0000	0.0000	50.00	2.28	0.1000	0.0000	4.0000
3.7600	23.4797	0.0000	0.0000	46.67	2.12	0.1600	0.0000	6.5333
3.9000	22.6371	0.0000	0.0000	55.00	2.50	0.1400	0.0000	1.1000
4.0400	21.8530	0.0000	0.0000	57.50	2.62	0.1400	0.0000	6.9000
4.1400	21.3253	0.0000	0.0000	39.17	1.78	0.0200	0.0000	3.1333
4.3200	20.4372	0.0000	0.0000	40.00	1.82	0.0200	0.0000	4.0000
4.4600	19.7960	0.0000	0.0000	40.00	1.82	0.0800	0.0000	6.4000
4.5800	19.2776	0.0000	0.0000	59.17	2.69	0.1200	0.0000	3.5500
5.6000	15.7684	0.0000	0.0000	45.83	2.09	0.0200	0.0000	0.9167
6.1000	14.4770	0.0000	0.0000	64.17	2.92	0.1200	0.0000	0.0000
6.3000	14.0178	0.0000	0.0000	102.50	4.66	0.1600	0.0000	12.3000
6.5800	13.4219	0.0000	0.0000	41.67	1.90	0.0400	0.0000	3.3333
7.1600	12.3359	0.0000	0.0000	43.33	1.97	0.0400	0.0000	1.7333
8.3200	10.6184	0.0000	0.0000	43.33	1.97	0.0800	0.0000	0.0000
9.0200	9.7959	0.0000	0.0000	262.50	11.95	0.0800	0.0000	31.5000
9.3400	9.4610	0.0000	0.0000	41.67	1.90	0.1000	0.0000	3.3333
10.7000	8.2613	0.0000	0.0000	99.17	4.51	0.0800	0.0000	5.9500
12.3400	7.1668	0.0000	0.0000	255.00	11.60	0.1000	0.0000	30.6000
12.5800	7.0306	0.0000	0.0000	155.00	7.05	0.1200	0.0000	24.8000
14.0200	6.3116	0.0000	0.0000	50.00	2.28	0.1400	0.0000	3.0000
15.1400	5.8471	0.0000	0.0000	46.67	2.12	0.1400	0.0000	0.9333
15.9800	5.5416	0.0000	0.0000	41.67	1.90	0.0200	0.0000	2.5000
17.6200	5.0293	0.0000	0.0000	50.83	2.31	0.1200	0.0000	3.0500
17.9600	4.9349	0.0000	0.0000	184.17	8.38	0.0800	0.0000	18.4167
18.6800	4.7462	0.0000	0.0000	84.17	3.83	0.1200	0.0000	10.1000
18.9200	4.6866	0.0000	0.0000	65.00	2.96	0.1400	0.0000	9.1000
19.9400	4.4491	0.0000	0.0000	43.33	1.97	0.0800	0.0000	6.9333
20.9600	4.2348	0.0000	0.0000	425.83	19.38	0.1000	0.0000	34.0667
22.1600	4.0081	0.0000	0.0000	136.67	6.22	0.0200	0.0000	10.9333
24.4200	3.6421	0.0000	0.0000	120.83	5.50	0.0600	0.0000	12.0833
24.7200	3.5985	0.0000	0.0000	228.33	10.39	0.0200	0.0000	31.9667
24.9600	3.5645	0.0000	0.0000	100.83	4.59	0.0800	0.0000	14.1167
25.3200	3.5146	0.0000	0.0000	137.50	6.26	0.0600	0.0000	16.5000
25.5400	3.4848	0.0000	0.0000	970.00	44.14	0.0800	0.0000	77.6000
26.7200	3.3336	0.0000	0.0000	2197.50	100.00	0.0800	0.0000	351.6000
27.0000	3.2996	0.0000	0.0000	543.33	24.73	0.0400	0.0000	76.0667
27.5600	3.2338	0.0000	0.0000	66.67	3.03	0.1000	0.0000	6.6667
28.0600	3.1773	0.0000	0.0000	421.67	19.19	0.0800	0.0000	59.0333
28.3800	3.1422	0.0000	0.0000	92.50	4.21	0.1400	0.0000	14.8000
28.7800	3.0995	0.0000	0.0000	94.17	4.29	0.1000	0.0000	13.1833
30.0200	2.9742	0.0000	0.0000	65.83	3.00	0.1600	0.0000	7.9000
30.3000	2.9474	0.0000	0.0000	209.17	9.52	0.0000	0.0000	20.9167
30.6000	2.9191	0.0000	0.0000	167.50	7.62	0.0000	0.0000	20.1000
31.1200	2.8715	0.0000	0.0000	51.67	2.35	0.1600	0.0000	7.2333
31.3400	2.8519	0.0000	0.0000	73.33	3.34	0.1600	0.0000	10.2667
32.2600	2.7726	0.0000	0.0000	49.17	2.24	0.1200	0.0000	5.9000
33.1800	2.6978	0.0000	0.0000	117.50	5.35	0.1000	0.0000	11.7500
34.7000	2.5830	0.0000	0.0000	107.50	4.89	0.1400	0.0000	15.0500
35.1400	2.5517	0.0000	0.0000	90.00	4.10	0.1400	0.0000	12.6000
35.6000	2.5198	0.0000	0.0000	234.17	10.66	0.1600	0.0000	28.1000
36.6800	2.4480	0.0000	0.0000	182.50	8.30	0.0400	0.0000	29.2000
37.4800	2.3976	0.0000	0.0000	42.50	1.93	0.1000	0.0000	5.1000
37.6800	2.3853	0.0000	0.0000	113.33	5.16	0.1200	0.0000	13.6000
39.5800	2.2751	0.0000	0.0000	135.83	6.18	0.0600	0.0000	19.0167
40.3800	2.2318	0.0000	0.0000	140.83	6.41	0.1600	0.0000	14.0833
41.8000	2.1592	0.0000	0.0000	51.67	2.35	0.1200	0.0000	6.2000
42.0000	2.1494	0.0000	0.0000	49.17	2.24	0.1200	0.0000	5.9000
42.5400	2.1234	0.0000	0.0000	143.33	6.52	0.0600	0.0000	14.3333
45.1800	2.0052	0.0000	0.0000	40.00	1.82	0.1000	0.0000	5.6000
45.7200	1.9828	0.0000	0.0000	145.83	6.64	0.0800	0.0000	23.3333
45.8800	1.9763	0.0000	0.0000	230.83	10.50	0.0600	0.0000	27.7000
47.2200	1.9233	0.0000	0.0000	40.83	1.86	0.1600	0.0000	2.4500
49.7400	1.8316	0.0000	0.0000	65.83	3.00	0.1400	0.0000	1.3167
49.8600	1.8274	0.0000	0.0000	51.67	2.35	0.1400	0.0000	3.1000
50.0600	1.8206	0.0000	0.0000	282.50	12.86	0.0200	0.0000	16.9500
50.2800	1.8131	0.0000	0.0000	870.83	39.63	0.0800	0.0000	69.6667
50.7000	1.7991	0.0000	0.0000	54.17	2.46	0.1200	0.0000	4.3333
52.4800	1.7422	0.0000	0.0000	380.83	17.33	0.1400	0.0000	15.2333
52.6200	1.7379	0.0000	0.0000	263.33	11.98	0.1200	0.0000	10.5333
54.9800	1.6687	0.0000	0.0000	79.17	3.60	0.0800	0.0000	7.9167
55.4600	1.6554	0.0000	0.0000	62.50	2.84	0.1000	0.0000	1.2500
58.3400	1.5804	0.0000	0.0000	44.17	2.01	0.0600	0.0000	4.4167
58.5400	1.5755	0.0000	0.0000	52.50	2.39	0.1400	0.0000	2.1000
60.0400	1.5396	0.0000	0.0000	202.50	9.22	0.1200	0.0000	20.2500
60.2000	1.5359	0.0000	0.0000	140.83	6.41	0.1200	0.0000	19.7167
61.5800	1.5048	0.0000	0.0000	42.50	1.93	0.0400	0.0000	6.8000
61.8600	1.4986	0.0000	0.0000	45.83	2.09	0.0600	0.0000	4.5833
63.6400	1.4609	0.0000	0.0000	40.83	1.86	0.1400	0.0000	3.2667
64.1200	1.4512	0.0000	0.0000	44.17	2.01	0.0600	0.0000	0.8833
64.3200	1.4471	0.0000	0.0000	40.83	1.86	0.1000	0.0000	0.8167

File: 10_2_AUG_PF_RT.txt
Filename:
	C:\Program Files\Thermo Electron\WinXRD\Datafiles\FIEN\10_2_AUG_0_BG_RT.pk

File Created:
	April 15, 2019 - 03:14 PM

Specimen Id:
	10.2 AUG 0 BG

Specimen Name:

Specimen Description:

Comment:
Scan Type: 2Theta Scan
Start Angle: 1 deg.
Stop Angle: 65 deg.
Num Points: 3201
Step Size: 0.02 deg.
Scan Rate: 1.000000
Scan Mode: Continuous
Wavelength: 1.540562
\Kalpha1: 1.540562	\Kalpha2: 1.544390	\Kbeta: 1.392218

Optics:
		Detector:
			 Type: Fixed Slits
		Tube:
			 Type: Fixed Slits

Datas:
Peaks:

Position        Dspace          ESD(P)          Corr.Fact       Intensity       Rel.Int.        FWHM(L)         ESD(L)          Area            Source                  Curve           Strain  CSize   CSize_Source
[deg]           [A]             [deg]           [deg]           [CPS]           [CPS]           [deg]           [deg]           [deg]           [--]                    [--]            [--]    [--]    [--]
  2.6400        33.4377           0.0000          0.0000            68.33         3.11          0.1400            0.0000           5.4667       PFind                   None            0.00    0.00    None
  3.0600        28.8491           0.0000          0.0000            48.33         2.20          0.1000            0.0000           3.8667       PFind                   None            0.00    0.00    None
  3.3800        26.1185           0.0000          0.0000            53.33         2.43          0.1000            0.0000           5.3333       PFind                   None            0.00    0.00    None
  3.7600        23.4797           0.0000          0.0000            46.67         2.12          0.1600            0.0000           6.5333       PFind                   None            0.00    0.00    None
  4.0400        21.8530           0.0000          0.0000            57.50         2.62          0.1400            0.0000           6.9000       PFind                   None            0.00    0.00    None
  4.3200        20.4372           0.0000          0.0000            40.00         1.82          0.0200            0.0000           4.0000       PFind                   None            0.00    0.00    None
  4.5800        19.2776           0.0000          0.0000            59.17         2.69          0.1200            0.0000           3.5500       PFind                   None            0.00    0.00    None
  6.1000        14.4770           0.0000          0.0000            64.17         2.92          0.1200            0.0000           0.0000       PFind                   None            0.00    0.00    None
  6.5800        13.4219           0.0000          0.0000            41.67         1.90          0.0400            0.0000           3.3333       PFind                   None            0.00    0.00    None
  8.3200        10.6184           0.0000          0.0000            43.33         1.97          0.0800            0.0000           0.0000       PFind                   None            0.00    0.00    None
  9.3400         9.4610           0.0000          0.0000            41.67         1.90          0.1000            0.0000           3.3333       PFind                   None            0.00    0.00    None
 12.3400         7.1668           0.0000          0.0000           255.00        11.60          0.1000            0.0000          30.6000       PFind                   None            0.00    0.00    None
 14.0200         6.3116           0.0000          0.0000            50.00         2.28          0.1400            0.0000           3.0000       PFind                   None            0.00    0.00    None
 15.9800         5.5416           0.0000          0.0000            41.67         1.90          0.0200            0.0000           2.5000       PFind                   None            0.00    0.00    None
 17.9600         4.9349           0.0000          0.0000           184.17         8.38          0.0800            0.0000          18.4167       PFind                   None            0.00    0.00    None
 18.9200         4.6866           0.0000          0.0000            65.00         2.96          0.1400            0.0000           9.1000       PFind                   None            0.00    0.00    None
 20.9600         4.2348           0.0000          0.0000           425.83        19.38          0.1000            0.0000          34.0667       PFind                   None            0.00    0.00    None
 24.4200         3.6421           0.0000          0.0000           120.83         5.50          0.0600            0.0000          12.0833       PFind                   None            0.00    0.00    None
 24.9600         3.5645           0.0000          0.0000           100.83         4.59          0.0800            0.0000          14.1167       PFind                   None            0.00    0.00    None
 25.5400         3.4848           0.0000          0.0000           970.00        44.14          0.0800            0.0000          77.6000       PFind                   None            0.00    0.00    None
 27.0000         3.2996           0.0000          0.0000           543.33        24.73          0.0400            0.0000          76.0667       PFind                   None            0.00    0.00    None
 28.0600         3.1773           0.0000          0.0000           421.67        19.19          0.0800            0.0000          59.0333       PFind                   None            0.00    0.00    None
 28.7800         3.0995           0.0000          0.0000            94.17         4.29          0.1000            0.0000          13.1833       PFind                   None            0.00    0.00    None
 30.3000         2.9474           0.0000          0.0000           209.17         9.52          0.0000            0.0000          20.9167       PFind                   None            0.00    0.00    None
 31.1200         2.8715           0.0000          0.0000            51.67         2.35          0.1600            0.0000           7.2333       PFind                   None            0.00    0.00    None
 32.2600         2.7726           0.0000          0.0000            49.17         2.24          0.1200            0.0000           5.9000       PFind                   None            0.00    0.00    None
 34.7000         2.5830           0.0000          0.0000           107.50         4.89          0.1400            0.0000          15.0500       PFind                   None            0.00    0.00    None
 35.6000         2.5198           0.0000          0.0000           234.17        10.66          0.1600            0.0000          28.1000       PFind                   None            0.00    0.00    None
 37.4800         2.3976           0.0000          0.0000            42.50         1.93          0.1000            0.0000           5.1000       PFind                   None            0.00    0.00    None
 39.5800         2.2751           0.0000          0.0000           135.83         6.18          0.0600            0.0000          19.0167       PFind                   None            0.00    0.00    None
 41.8000         2.1592           0.0000          0.0000            51.67         2.35          0.1200            0.0000           6.2000       PFind                   None            0.00    0.00    None
 42.5400         2.1234           0.0000          0.0000           143.33         6.52          0.0600            0.0000          14.3333       PFind                   None            0.00    0.00    None
 45.7200         1.9828           0.0000          0.0000           145.83         6.64          0.0800            0.0000          23.3333       PFind                   None            0.00    0.00    None
 47.2200         1.9233           0.0000          0.0000            40.83         1.86          0.1600            0.0000           2.4500       PFind                   None            0.00    0.00    None
 49.8600         1.8274           0.0000          0.0000            51.67         2.35          0.1400            0.0000           3.1000       PFind                   None            0.00    0.00    None
 50.2800         1.8131           0.0000          0.0000           870.83        39.63          0.0800            0.0000          69.6667       PFind                   None            0.00    0.00    None
 52.4800         1.7422           0.0000          0.0000           380.83        17.33          0.1400            0.0000          15.2333       PFind                   None            0.00    0.00    None
 54.9800         1.6687           0.0000          0.0000            79.17         3.60          0.0800            0.0000           7.9167       PFind                   None            0.00    0.00    None
 58.3400         1.5804           0.0000          0.0000            44.17         2.01          0.0600            0.0000           4.4167       PFind                   None            0.00    0.00    None
 60.0400         1.5396           0.0000          0.0000           202.50         9.22          0.1200            0.0000          20.2500       PFind                   None            0.00    0.00    None
 61.5800         1.5048           0.0000          0.0000            42.50         1.93          0.0400            0.0000           6.8000       PFind                   None            0.00    0.00    None
 63.6400         1.4609           0.0000          0.0000            40.83         1.86          0.1400            0.0000           3.2667       PFind                   None            0.00    0.00    None
 64.3200         1.4471           0.0000          0.0000            40.83         1.86          0.1000            0.0000           0.8167       PFind                   None            0.00    0.00    None