Folder: Non-Linear-XRD-Inversion/Generating XRD fingerprints/INPUT/Detrital data (part 24)

File: G13_pf_RT.txt
Filename:
	C:\Program Files\Thermo Electron\WinXRD\Datafiles\FIEN2\FIEN\G13_RT.pk

File Created:
	February 25, 2021 - 10:43 AM

Specimen Id:
	G13 RT

Specimen Name:

Specimen Description:

Comment:
Scan Type: 2Theta Scan
Start Angle: 3 deg.
Stop Angle: 65 deg.
Num Points: 3101
Step Size: 0.02 deg.
Scan Rate: 1.000000
Scan Mode: Continuous
Wavelength: 1.540562
\Kalpha1: 1.540562	\Kalpha2: 1.544390	\Kbeta: 1.392218

Optics:
		Detector:
			 Type: Fixed Slits
		Tube:
			 Type: Fixed Slits

Datas:
Peaks:

Position        Dspace          ESD(P)          Corr.Fact       Intensity       Rel.Int.        FWHM(L)         ESD(L)          Area            Source                  Curve           Strain  CSize   CSize_Source
[deg]           [A]             [deg]           [deg]           [CPS]           [CPS]           [deg]           [deg]           [deg]           [--]                    [--]            [--]    [--]    [--]
  4.9200        17.9461           0.0000          0.0000            52.50         1.11          0.0800            0.0000           1.0500       PFind                   None            0.00    0.00    None
  5.9000        14.9672           0.0000          0.0000            77.50         1.64          0.0000            0.0000           1.5500       PFind                   None            0.00    0.00    None
  6.7600        13.0649           0.0000          0.0000            56.67         1.20          0.0800            0.0000           1.1333       PFind                   None            0.00    0.00    None
  7.4600        11.8405           0.0000          0.0000            38.33         0.81          0.0000            0.0000           3.0667       PFind                   None            0.00    0.00    None
  8.2800        10.6696           0.0000          0.0000            47.50         1.01          0.0600            0.0000           0.9500       PFind                   None            0.00    0.00    None
  9.2800         9.5220           0.0000          0.0000            64.17         1.36          0.0200            0.0000           6.4167       PFind                   None            0.00    0.00    None
 10.0800         8.7680           0.0000          0.0000            39.17         0.83          0.0200            0.0000           0.7833       PFind                   None            0.00    0.00    None
 11.0400         8.0076           0.0000          0.0000            45.83         0.97          0.1000            0.0000           0.0000       PFind                   None            0.00    0.00    None
 11.5800         7.6354           0.0000          0.0000            26.67         0.56          0.1200            0.0000           0.5333       PFind                   None            0.00    0.00    None
 12.9600         6.8253           0.0000          0.0000            28.33         0.60          0.1200            0.0000           0.0000       PFind                   None            0.00    0.00    None
 13.9000         6.3658           0.0000          0.0000            25.00         0.53          0.1200            0.0000           1.5000       PFind                   None            0.00    0.00    None
 14.9200         5.9328           0.0000          0.0000            34.17         0.72          0.0400            0.0000           1.3667       PFind                   None            0.00    0.00    None
 16.0000         5.5347           0.0000          0.0000            30.83         0.65          0.0400            0.0000           0.6167       PFind                   None            0.00    0.00    None
 18.0600         4.9078           0.0000          0.0000            30.00         0.64          0.0200            0.0000           3.0000       PFind                   None            0.00    0.00    None
 19.7600         4.4892           0.0000          0.0000            61.67         1.31          0.1000            0.0000           8.6333       PFind                   None            0.00    0.00    None
 21.3200         4.1641           0.0000          0.0000            31.67         0.67          0.0400            0.0000           0.6333       PFind                   None            0.00    0.00    None
 22.4200         3.9622           0.0000          0.0000            25.83         0.55          0.0200            0.0000           0.5167       PFind                   None            0.00    0.00    None
 23.4200         3.7953           0.0000          0.0000           127.50         2.70          0.0200            0.0000          10.2000       PFind                   None            0.00    0.00    None
 25.0400         3.5533           0.0000          0.0000           160.83         3.41          0.0400            0.0000          16.0833       PFind                   None            0.00    0.00    None
 26.5200         3.3582           0.0000          0.0000          1192.50        25.25          0.1200            0.0000         119.2500       PFind                   None            0.00    0.00    None
 28.2000         3.1619           0.0000          0.0000            52.50         1.11          0.1400            0.0000           5.2500       PFind                   None            0.00    0.00    None
 30.1000         2.9665           0.0000          0.0000            88.33         1.87          0.0200            0.0000           8.8333       PFind                   None            0.00    0.00    None
 31.4400         2.8430           0.0000          0.0000            42.50         0.90          0.1600            0.0000           3.4000       PFind                   None            0.00    0.00    None
 32.7000         2.7363           0.0000          0.0000            29.17         0.62          0.0200            0.0000           0.0000       PFind                   None            0.00    0.00    None
 34.4600         2.6005           0.0000          0.0000            60.00         1.27          0.0600            0.0000           7.2000       PFind                   None            0.00    0.00    None
 36.4200         2.4649           0.0000          0.0000           100.83         2.14          0.0000            0.0000          16.1333       PFind                   None            0.00    0.00    None
 39.3200         2.2895           0.0000          0.0000           122.50         2.59          0.1600            0.0000           7.3500       PFind                   None            0.00    0.00    None
 40.8400         2.2077           0.0000          0.0000            25.83         0.55          0.1600            0.0000           1.5500       PFind                   None            0.00    0.00    None
 43.4200         2.0824           0.0000          0.0000            82.50         1.75          0.1000            0.0000           6.6000       PFind                   None            0.00    0.00    None
 48.0000         1.8938           0.0000          0.0000            35.83         0.76          0.1200            0.0000           3.5833       PFind                   None            0.00    0.00    None
 51.0000         1.7892           0.0000          0.0000            46.67         0.99          0.0400            0.0000           5.6000       PFind                   None            0.00    0.00    None
 53.0200         1.7257           0.0000          0.0000            31.67         0.67          0.0600            0.0000           0.6333       PFind                   None            0.00    0.00    None
 55.2600         1.6609           0.0000          0.0000            76.67         1.62          0.0000            0.0000           9.2000       PFind                   None            0.00    0.00    None
 55.8400         1.6451           0.0000          0.0000            41.67         0.88          0.1600            0.0000           5.0000       PFind                   None            0.00    0.00    None
 59.8200         1.5448           0.0000          0.0000           191.67         4.06          0.0200            0.0000          19.1667       PFind                   None            0.00    0.00    None
 60.8000         1.5222           0.0000          0.0000            35.00         0.74          0.1200            0.0000           5.6000       PFind                   None            0.00    0.00    None
 62.0600         1.4943           0.0000          0.0000            25.83         0.55          0.0200            0.0000           0.5167       PFind                   None            0.00    0.00    None
 63.9200         1.4552           0.0000          0.0000            36.67         0.78          0.0200            0.0000           3.6667       PFind                   None            0.00    0.00    None
 64.0600         1.4524           0.0000          0.0000            28.33         0.60          0.0000            0.0000           3.4000       PFind                   None            0.00    0.00    None

File: G14_A_BIS_pf_RT.txt
Filename:
	C:\Program Files\Thermo Electron\WinXRD\Datafiles\FIEN2\FIEN\G14_A_BIS_RT.pk

File Created:
	February 25, 2021 - 10:43 AM

Specimen Id:
	G14 A RT

Specimen Name:

Specimen Description:

Comment:
Scan Type: 2Theta Scan
Start Angle: 3 deg.
Stop Angle: 65 deg.
Num Points: 3101
Step Size: 0.02 deg.
Scan Rate: 1.000000
Scan Mode: Continuous
Wavelength: 1.540562
\Kalpha1: 1.540562	\Kalpha2: 1.544390	\Kbeta: 1.392218

Optics:
		Detector:
			 Type: Fixed Slits
		Tube:
			 Type: Fixed Slits

Datas:
Peaks:

Position        Dspace          ESD(P)          Corr.Fact       Intensity       Rel.Int.        FWHM(L)         ESD(L)          Area            Source                  Curve           Strain  CSize   CSize_Source
[deg]           [A]             [deg]           [deg]           [CPS]           [CPS]           [deg]           [deg]           [deg]           [--]                    [--]            [--]    [--]    [--]
  4.6800        18.8659           0.0000          0.0000            60.00         3.24          0.0800            0.0000           2.4000       PFind                   None            0.00    0.00    None
  5.3800        16.4127           0.0000          0.0000            50.00         2.70          0.1000            0.0000           6.0000       PFind                   None            0.00    0.00    None
  6.7800        13.0264           0.0000          0.0000            64.17         3.46          0.0200            0.0000           3.8500       PFind                   None            0.00    0.00    None
  7.3200        12.0666           0.0000          0.0000            48.33         2.61          0.0800            0.0000           3.8667       PFind                   None            0.00    0.00    None
  8.1600        10.8263           0.0000          0.0000            38.33         2.07          0.1600            0.0000           3.8333       PFind                   None            0.00    0.00    None
  9.5200         9.2825           0.0000          0.0000            40.83         2.20          0.1000            0.0000           5.7167       PFind                   None            0.00    0.00    None
 10.2000         8.6651           0.0000          0.0000            30.83         1.66          0.0600            0.0000           4.3167       PFind                   None            0.00    0.00    None
 11.2400         7.8656           0.0000          0.0000            32.50         1.75          0.1600            0.0000           1.3000       PFind                   None            0.00    0.00    None
 12.8200         6.8995           0.0000          0.0000            34.17         1.84          0.1600            0.0000           0.0000       PFind                   None            0.00    0.00    None
 13.6000         6.5055           0.0000          0.0000            31.67         1.71          0.0800            0.0000           3.1667       PFind                   None            0.00    0.00    None
 15.1400         5.8471           0.0000          0.0000            29.17         1.57          0.0800            0.0000           0.0000       PFind                   None            0.00    0.00    None
 16.3200         5.4269           0.0000          0.0000            27.50         1.48          0.1600            0.0000           0.5500       PFind                   None            0.00    0.00    None
 18.3400         4.8335           0.0000          0.0000            29.17         1.57          0.0800            0.0000           2.9167       PFind                   None            0.00    0.00    None
 19.3000         4.5952           0.0000          0.0000            33.33         1.80          0.0600            0.0000           2.0000       PFind                   None            0.00    0.00    None
 20.4400         4.3414           0.0000          0.0000            35.00         1.89          0.0000            0.0000           2.8000       PFind                   None            0.00    0.00    None
 22.4000         3.9657           0.0000          0.0000            39.17         2.11          0.1200            0.0000           3.1333       PFind                   None            0.00    0.00    None
 24.1600         3.6807           0.0000          0.0000           112.50         6.07          0.1400            0.0000           9.0000       PFind                   None            0.00    0.00    None
 25.4200         3.5010           0.0000          0.0000           105.83         5.71          0.0800            0.0000          16.9333       PFind                   None            0.00    0.00    None
 26.8000         3.3238           0.0000          0.0000           660.00        35.60          0.0600            0.0000          79.2000       PFind                   None            0.00    0.00    None
 28.5200         3.1271           0.0000          0.0000            79.17         4.27          0.0800            0.0000           9.5000       PFind                   None            0.00    0.00    None
 30.7600         2.9043           0.0000          0.0000            72.50         3.91          0.0600            0.0000          10.1500       PFind                   None            0.00    0.00    None
 31.9800         2.7962           0.0000          0.0000            60.83         3.28          0.0600            0.0000           9.7333       PFind                   None            0.00    0.00    None
 33.9000         2.6421           0.0000          0.0000            28.33         1.53          0.0400            0.0000           2.2667       PFind                   None            0.00    0.00    None
 35.1200         2.5531           0.0000          0.0000            35.00         1.89          0.1000            0.0000           2.8000       PFind                   None            0.00    0.00    None
 37.2000         2.4150           0.0000          0.0000            36.67         1.98          0.0400            0.0000           2.9333       PFind                   None            0.00    0.00    None
 38.6800         2.3259           0.0000          0.0000            29.17         1.57          0.1200            0.0000           4.0833       PFind                   None            0.00    0.00    None
 39.9800         2.2532           0.0000          0.0000            26.67         1.44          0.0800            0.0000           1.6000       PFind                   None            0.00    0.00    None
 41.6200         2.1682           0.0000          0.0000            40.83         2.20          0.0200            0.0000           3.2667       PFind                   None            0.00    0.00    None
 43.4200         2.0824           0.0000          0.0000            63.33         3.42          0.1000            0.0000           6.3333       PFind                   None            0.00    0.00    None
 44.4200         2.0378           0.0000          0.0000           210.00        11.33          0.0600            0.0000          33.6000       PFind                   None            0.00    0.00    None
 46.2000         1.9633           0.0000          0.0000            25.00         1.35          0.0000            0.0000           0.5000       PFind                   None            0.00    0.00    None
 48.0600         1.8916           0.0000          0.0000            45.00         2.43          0.1000            0.0000           5.4000       PFind                   None            0.00    0.00    None
 49.6200         1.8357           0.0000          0.0000            42.50         2.29          0.0400            0.0000           5.9500       PFind                   None            0.00    0.00    None
 51.2200         1.7821           0.0000          0.0000            37.50         2.02          0.1000            0.0000           3.0000       PFind                   None            0.00    0.00    None
 52.8000         1.7324           0.0000          0.0000            33.33         1.80          0.1600            0.0000           2.6667       PFind                   None            0.00    0.00    None
 55.1800         1.6632           0.0000          0.0000            40.00         2.16          0.0800            0.0000           4.8000       PFind                   None            0.00    0.00    None
 58.6800         1.5720           0.0000          0.0000            24.17         1.30          0.0200            0.0000           2.4167       PFind                   None            0.00    0.00    None
 60.0200         1.5401           0.0000          0.0000           134.17         7.24          0.1400            0.0000          18.7833       PFind                   None            0.00    0.00    None
 60.8800         1.5204           0.0000          0.0000            31.67         1.71          0.1600            0.0000           0.6333       PFind                   None            0.00    0.00    None
 63.9200         1.4552           0.0000          0.0000            47.50         2.56          0.1400            0.0000           5.7000       PFind                   None            0.00    0.00    None
 64.8800         1.4360           0.0000          0.0000            36.67         1.98          0.0800            0.0000           0.7333       PFind                   None            0.00    0.00    None