Folder: Non-Linear-XRD-Inversion/Generating XRD fingerprints/INPUT/Detrital data (part 57)

File: GG_11_pf_SFT.txt
Filename:
	C:\Program Files\Thermo Electron\WinXRD\Datafiles\FIEN2\GEO\GG_11_SFT.pk

File Created:
	February 25, 2021 - 10:20 AM

Specimen Id:
	GG_11_SFT

Specimen Name:

Specimen Description:

Comment:
Scan Type: 2Theta Scan
Start Angle: 3 deg.
Stop Angle: 65 deg.
Num Points: 3101
Step Size: 0.02 deg.
Scan Rate: 1.000000
Scan Mode: Continuous
Wavelength: 1.540562
\Kalpha1: 1.540562	\Kalpha2: 1.544390	\Kbeta: 1.392218

Optics:
		Detector:
			 Type: Fixed Slits
		Tube:
			 Type: Fixed Slits

Datas:
Peaks:

Position        Dspace          ESD(P)          Corr.Fact       Intensity       Rel.Int.        FWHM(L)         ESD(L)          Area            Source                  Curve           Strain  CSize   CSize_Source
[deg]           [A]             [deg]           [deg]           [CPS]           [CPS]           [deg]           [deg]           [deg]           [--]                    [--]            [--]    [--]    [--]
  4.6600        18.9468           0.0000          0.0000            42.50         6.23          0.1200            0.0000           4.2500       PFind                   None            0.00    0.00    None
  5.2200        16.9154           0.0000          0.0000            45.83         6.72          0.0200            0.0000           0.9167       PFind                   None            0.00    0.00    None
  6.2200        14.1979           0.0000          0.0000           120.83        17.73          0.1000            0.0000          19.3333       PFind                   None            0.00    0.00    None
  7.0800        12.4751           0.0000          0.0000            35.83         5.26          0.0200            0.0000           1.4333       PFind                   None            0.00    0.00    None
  7.6000        11.6227           0.0000          0.0000            30.83         4.52          0.1600            0.0000           0.6167       PFind                   None            0.00    0.00    None
  8.1800        10.7998           0.0000          0.0000            32.50         4.77          0.1200            0.0000           3.9000       PFind                   None            0.00    0.00    None
  9.3800         9.4207           0.0000          0.0000            49.17         7.21          0.1600            0.0000           0.9833       PFind                   None            0.00    0.00    None
 10.1800         8.6821           0.0000          0.0000            24.17         3.55          0.0800            0.0000           0.9667       PFind                   None            0.00    0.00    None
 10.6400         8.3078           0.0000          0.0000           106.67        15.65          0.1400            0.0000          12.8000       PFind                   None            0.00    0.00    None
 12.3200         7.1784           0.0000          0.0000           315.00        46.21          0.0200            0.0000          50.4000       PFind                   None            0.00    0.00    None
 13.6600         6.4771           0.0000          0.0000            29.17         4.28          0.1000            0.0000           0.5833       PFind                   None            0.00    0.00    None
 17.9600         4.9349           0.0000          0.0000            99.17        14.55          0.0400            0.0000          11.9000       PFind                   None            0.00    0.00    None
 19.9400         4.4491           0.0000          0.0000            35.83         5.26          0.0800            0.0000           5.7333       PFind                   None            0.00    0.00    None
 22.1600         4.0081           0.0000          0.0000           128.33        18.83          0.0200            0.0000          17.9667       PFind                   None            0.00    0.00    None
 23.6400         3.7604           0.0000          0.0000           106.67        15.65          0.1000            0.0000           8.5333       PFind                   None            0.00    0.00    None
 25.2800         3.5201           0.0000          0.0000           239.17        35.09          0.1000            0.0000          38.2667       PFind                   None            0.00    0.00    None
 27.3200         3.2617           0.0000          0.0000           105.00        15.40          0.0200            0.0000          10.5000       PFind                   None            0.00    0.00    None
 28.4200         3.1379           0.0000          0.0000            85.00        12.47          0.1400            0.0000          13.6000       PFind                   None            0.00    0.00    None
 30.5400         2.9247           0.0000          0.0000            99.17        14.55          0.0000            0.0000          15.8667       PFind                   None            0.00    0.00    None
 31.3600         2.8501           0.0000          0.0000            77.50        11.37          0.0800            0.0000          10.8500       PFind                   None            0.00    0.00    None
 32.9200         2.7185           0.0000          0.0000            26.67         3.91          0.0400            0.0000           0.5333       PFind                   None            0.00    0.00    None
 34.7000         2.5830           0.0000          0.0000            71.67        10.51          0.1600            0.0000           8.6000       PFind                   None            0.00    0.00    None
 35.6800         2.5143           0.0000          0.0000            97.50        14.30          0.0200            0.0000          15.6000       PFind                   None            0.00    0.00    None
 36.6600         2.4493           0.0000          0.0000            89.17        13.08          0.1200            0.0000           8.9167       PFind                   None            0.00    0.00    None
 37.8800         2.3732           0.0000          0.0000            62.50         9.17          0.0400            0.0000          10.0000       PFind                   None            0.00    0.00    None
 38.8600         2.3156           0.0000          0.0000            30.83         4.52          0.1200            0.0000           2.4667       PFind                   None            0.00    0.00    None
 39.5800         2.2751           0.0000          0.0000            92.50        13.57          0.0400            0.0000           7.4000       PFind                   None            0.00    0.00    None
 41.4200         2.1782           0.0000          0.0000            25.83         3.79          0.1000            0.0000           0.0000       PFind                   None            0.00    0.00    None
 42.0200         2.1484           0.0000          0.0000            70.00        10.27          0.1600            0.0000           7.0000       PFind                   None            0.00    0.00    None
 42.9400         2.1045           0.0000          0.0000            30.83         4.52          0.0200            0.0000           3.0833       PFind                   None            0.00    0.00    None
 45.5000         1.9919           0.0000          0.0000            78.33        11.49          0.0600            0.0000          12.5333       PFind                   None            0.00    0.00    None
 47.2200         1.9233           0.0000          0.0000            30.83         4.52          0.0000            0.0000           0.6167       PFind                   None            0.00    0.00    None
 48.3600         1.8805           0.0000          0.0000            40.00         5.87          0.1400            0.0000           5.6000       PFind                   None            0.00    0.00    None
 49.4000         1.8434           0.0000          0.0000            32.50         4.77          0.1600            0.0000           0.0000       PFind                   None            0.00    0.00    None
 50.2800         1.8131           0.0000          0.0000           174.17        25.55          0.1600            0.0000          27.8667       PFind                   None            0.00    0.00    None
 51.2800         1.7801           0.0000          0.0000            35.00         5.13          0.0800            0.0000           2.8000       PFind                   None            0.00    0.00    None
 52.5000         1.7416           0.0000          0.0000            25.83         3.79          0.1000            0.0000           2.0667       PFind                   None            0.00    0.00    None
 53.6200         1.7078           0.0000          0.0000            23.33         3.42          0.1600            0.0000           0.4667       PFind                   None            0.00    0.00    None
 55.5800         1.6521           0.0000          0.0000            35.83         5.26          0.1400            0.0000           0.7167       PFind                   None            0.00    0.00    None
 56.2600         1.6338           0.0000          0.0000            34.17         5.01          0.0000            0.0000           1.3667       PFind                   None            0.00    0.00    None
 57.2400         1.6081           0.0000          0.0000            28.33         4.16          0.0200            0.0000           0.0000       PFind                   None            0.00    0.00    None
 59.0000         1.5643           0.0000          0.0000            23.33         3.42          0.1600            0.0000           1.8667       PFind                   None            0.00    0.00    None
 60.0600         1.5392           0.0000          0.0000           103.33        15.16          0.0800            0.0000          14.4667       PFind                   None            0.00    0.00    None
 60.9400         1.5190           0.0000          0.0000            45.00         6.60          0.1200            0.0000           3.6000       PFind                   None            0.00    0.00    None
 61.6400         1.5034           0.0000          0.0000            35.83         5.26          0.1600            0.0000           5.7333       PFind                   None            0.00    0.00    None
 62.2000         1.4913           0.0000          0.0000            31.67         4.65          0.0200            0.0000           3.1667       PFind                   None            0.00    0.00    None
 64.3200         1.4471           0.0000          0.0000            41.67         6.11          0.1600            0.0000           0.0000       PFind                   None            0.00    0.00    None

File: GG_11A_pf_SFT.txt
Filename:
	C:\Program Files\Thermo Electron\WinXRD\Datafiles\FIEN2\GEO\GG_11A_SFT.pk

File Created:
	February 25, 2021 - 10:21 AM

Specimen Id:
	GG_11A_SFT

Specimen Name:

Specimen Description:

Comment:
Scan Type: 2Theta Scan
Start Angle: 3 deg.
Stop Angle: 65 deg.
Num Points: 3101
Step Size: 0.02 deg.
Scan Rate: 1.000000
Scan Mode: Continuous
Wavelength: 1.540562
\Kalpha1: 1.540562	\Kalpha2: 1.544390	\Kbeta: 1.392218

Optics:
		Detector:
			 Type: Fixed Slits
		Tube:
			 Type: Fixed Slits

Datas:
Peaks:

Position        Dspace          ESD(P)          Corr.Fact       Intensity       Rel.Int.        FWHM(L)         ESD(L)          Area            Source                  Curve           Strain  CSize   CSize_Source
[deg]           [A]             [deg]           [deg]           [CPS]           [CPS]           [deg]           [deg]           [deg]           [--]                    [--]            [--]    [--]    [--]
  4.7000        18.7856           0.0000          0.0000            40.83         1.51          0.0800            0.0000           3.2667       PFind                   None            0.00    0.00    None
  5.4600        16.1724           0.0000          0.0000            25.83         0.95          0.0800            0.0000           1.0333       PFind                   None            0.00    0.00    None
  6.2800        14.0624           0.0000          0.0000           610.83        22.57          0.0800            0.0000          97.7333       PFind                   None            0.00    0.00    None
  7.3800        11.9687           0.0000          0.0000            55.00         2.03          0.0400            0.0000           4.4000       PFind                   None            0.00    0.00    None
  8.0600        10.9604           0.0000          0.0000            53.33         1.97          0.0200            0.0000           0.0000       PFind                   None            0.00    0.00    None
 10.2600         8.6146           0.0000          0.0000            23.33         0.86          0.0800            0.0000           0.0000       PFind                   None            0.00    0.00    None
 11.4800         7.7017           0.0000          0.0000            25.00         0.92          0.0600            0.0000           1.5000       PFind                   None            0.00    0.00    None
 13.1600         6.7220           0.0000          0.0000            32.50         1.20          0.1400            0.0000           1.3000       PFind                   None            0.00    0.00    None
 13.9800         6.3295           0.0000          0.0000            64.17         2.37          0.0200            0.0000           7.7000       PFind                   None            0.00    0.00    None
 15.2000         5.8241           0.0000          0.0000            27.50         1.02          0.1400            0.0000           0.0000       PFind                   None            0.00    0.00    None
 16.1800         5.4735           0.0000          0.0000            24.17         0.89          0.0200            0.0000           0.9667       PFind                   None            0.00    0.00    None
 17.4800         5.0693           0.0000          0.0000            21.67         0.80          0.1200            0.0000           0.0000       PFind                   None            0.00    0.00    None
 20.1400         4.4054           0.0000          0.0000            34.17         1.26          0.1600            0.0000           0.0000       PFind                   None            0.00    0.00    None
 21.2800         4.1719           0.0000          0.0000            30.00         1.11          0.1200            0.0000           1.2000       PFind                   None            0.00    0.00    None
 22.1600         4.0081           0.0000          0.0000           116.67         4.31          0.0000            0.0000          18.6667       PFind                   None            0.00    0.00    None
 23.1200         3.8438           0.0000          0.0000            30.00         1.11          0.0600            0.0000           2.4000       PFind                   None            0.00    0.00    None
 25.2400         3.5256           0.0000          0.0000           826.67        30.54          0.1600            0.0000         132.2667       PFind                   None            0.00    0.00    None
 28.0200         3.1818           0.0000          0.0000           382.50        14.13          0.0800            0.0000          61.2000       PFind                   None            0.00    0.00    None
 30.3000         2.9474           0.0000          0.0000            45.00         1.66          0.1400            0.0000           3.6000       PFind                   None            0.00    0.00    None
 31.6800         2.8220           0.0000          0.0000           147.50         5.45          0.0000            0.0000          23.6000       PFind                   None            0.00    0.00    None
 33.2600         2.6915           0.0000          0.0000            35.00         1.29          0.1600            0.0000           4.2000       PFind                   None            0.00    0.00    None
 34.2600         2.6152           0.0000          0.0000            21.67         0.80          0.0600            0.0000           0.0000       PFind                   None            0.00    0.00    None
 35.4000         2.5335           0.0000          0.0000            40.83         1.51          0.0400            0.0000           1.6333       PFind                   None            0.00    0.00    None
 36.9000         2.4339           0.0000          0.0000            35.83         1.32          0.0800            0.0000           0.0000       PFind                   None            0.00    0.00    None
 38.2400         2.3517           0.0000          0.0000          2706.67       100.00          0.0800            0.0000         433.0667       PFind                   None            0.00    0.00    None
 39.7000         2.2685           0.0000          0.0000            26.67         0.99          0.0000            0.0000           2.6667       PFind                   None            0.00    0.00    None
 40.3800         2.2318           0.0000          0.0000            26.67         0.99          0.1400            0.0000           2.6667       PFind                   None            0.00    0.00    None
 41.8600         2.1563           0.0000          0.0000            56.67         2.09          0.0400            0.0000           5.6667       PFind                   None            0.00    0.00    None
 43.6400         2.0724           0.0000          0.0000            19.17         0.71          0.0200            0.0000           0.7667       PFind                   None            0.00    0.00    None
 45.1800         2.0052           0.0000          0.0000            31.67         1.17          0.1600            0.0000           3.1667       PFind                   None            0.00    0.00    None
 46.5200         1.9506           0.0000          0.0000            18.33         0.68          0.1000            0.0000           0.3667       PFind                   None            0.00    0.00    None
 47.9400         1.8960           0.0000          0.0000            17.50         0.65          0.0800            0.0000           0.3500       PFind                   None            0.00    0.00    None
 48.7800         1.8653           0.0000          0.0000            19.17         0.71          0.0600            0.0000           0.0000       PFind                   None            0.00    0.00    None
 50.6800         1.7998           0.0000          0.0000            37.50         1.39          0.1600            0.0000           3.0000       PFind                   None            0.00    0.00    None
 52.7000         1.7354           0.0000          0.0000            24.17         0.89          0.0600            0.0000           1.4500       PFind                   None            0.00    0.00    None
 54.9600         1.6693           0.0000          0.0000            28.33         1.05          0.0800            0.0000           2.8333       PFind                   None            0.00    0.00    None
 55.9800         1.6413           0.0000          0.0000            25.00         0.92          0.1600            0.0000           2.0000       PFind                   None            0.00    0.00    None
 58.4600         1.5774           0.0000          0.0000            18.33         0.68          0.1000            0.0000           0.0000       PFind                   None            0.00    0.00    None
 60.0600         1.5392           0.0000          0.0000            51.67         1.91          0.0000            0.0000           5.1667       PFind                   None            0.00    0.00    None
 61.6000         1.5043           0.0000          0.0000            36.67         1.35          0.1600            0.0000           3.6667       PFind                   None            0.00    0.00    None
 64.5200         1.4431           0.0000          0.0000          1290.83        47.69          0.0400            0.0000         103.2667       PFind                   None            0.00    0.00    None
 64.7000         1.4395           0.0000          0.0000           648.33        23.95          0.0800            0.0000          51.8667       PFind                   None            0.00    0.00    None