Folder: Non-Linear-XRD-Inversion/Generating XRD fingerprints/INPUT/Detrital data (part 11)

File: 12_1_AUG_PF_FILTER.txt
Filename:
	C:\Program Files\Thermo Electron\WinXRD\Datafiles\FIEN\12_1_AUG_FILTER.pk

File Created:
	March 05, 2019 - 04:57 AM

Specimen Id:
	12.1 AUG FT

Specimen Name:

Specimen Description:

Comment:
Scan Type: 2Theta Scan
Start Angle: 1 deg.
Stop Angle: 65 deg.
Num Points: 3201
Step Size: 0.02 deg.
Scan Rate: 1.000000
Scan Mode: Continuous
Wavelength: 1.540562
\Kalpha1: 1.540562	\Kalpha2: 1.544390	\Kbeta: 1.392218

Optics:
		Detector:
			 Type: Fixed Slits
		Tube:
			 Type: Fixed Slits

Datas:
Peaks:

Position        Dspace          ESD(P)          Corr.Fact       Intensity       Rel.Int.        FWHM(L)         ESD(L)          Area            Source                  Curve           Strain  CSize   CSize_Source
[deg]           [A]             [deg]           [deg]           [CPS]           [CPS]           [deg]           [deg]           [deg]           [--]                    [--]            [--]    [--]    [--]
  2.7400        32.2176           0.0000          0.0000            67.50         1.59          0.0000            0.0000          10.8000       PFind                   None            0.00    0.00    None
  3.4200        25.8131           0.0000          0.0000            56.67         1.34          0.1000            0.0000           4.5333       PFind                   None            0.00    0.00    None
  4.1600        21.2229           0.0000          0.0000            39.17         0.92          0.0800            0.0000           1.5667       PFind                   None            0.00    0.00    None
  4.7600        18.5490           0.0000          0.0000            33.33         0.79          0.1000            0.0000           2.0000       PFind                   None            0.00    0.00    None
  5.3800        16.4127           0.0000          0.0000            30.00         0.71          0.0600            0.0000           1.8000       PFind                   None            0.00    0.00    None
  6.6400        13.3008           0.0000          0.0000            41.67         0.98          0.1600            0.0000           1.6667       PFind                   None            0.00    0.00    None
  7.2600        12.1662           0.0000          0.0000            30.00         0.71          0.0000            0.0000           0.0000       PFind                   None            0.00    0.00    None
  7.9800        11.0701           0.0000          0.0000            39.17         0.92          0.0200            0.0000           0.7833       PFind                   None            0.00    0.00    None
  9.1800         9.6255           0.0000          0.0000            80.00         1.89          0.0000            0.0000           9.6000       PFind                   None            0.00    0.00    None
  9.8600         8.9632           0.0000          0.0000            20.00         0.47          0.0600            0.0000           1.2000       PFind                   None            0.00    0.00    None
 10.8000         8.1850           0.0000          0.0000            29.17         0.69          0.0200            0.0000           0.0000       PFind                   None            0.00    0.00    None
 11.4600         7.7151           0.0000          0.0000            19.17         0.45          0.0200            0.0000           1.5333       PFind                   None            0.00    0.00    None
 12.4800         7.0867           0.0000          0.0000           309.17         7.29          0.1200            0.0000          49.4667       PFind                   None            0.00    0.00    None
 13.3200         6.6417           0.0000          0.0000            28.33         0.67          0.0400            0.0000           0.5667       PFind                   None            0.00    0.00    None
 14.2800         6.1972           0.0000          0.0000            21.67         0.51          0.1400            0.0000           1.7333       PFind                   None            0.00    0.00    None
 15.1600         5.8394           0.0000          0.0000            20.00         0.47          0.0600            0.0000           1.6000       PFind                   None            0.00    0.00    None
 16.3400         5.4203           0.0000          0.0000            16.67         0.39          0.0600            0.0000           0.6667       PFind                   None            0.00    0.00    None
 16.9600         5.2235           0.0000          0.0000            16.67         0.39          0.0000            0.0000           0.0000       PFind                   None            0.00    0.00    None
 19.5200         4.5439           0.0000          0.0000            15.83         0.37          0.0400            0.0000           0.6333       PFind                   None            0.00    0.00    None
 20.6400         4.2997           0.0000          0.0000            44.17         1.04          0.0600            0.0000           2.6500       PFind                   None            0.00    0.00    None
 22.0800         4.0225           0.0000          0.0000            20.00         0.47          0.1000            0.0000           1.6000       PFind                   None            0.00    0.00    None
 25.1600         3.5366           0.0000          0.0000           175.83         4.15          0.0000            0.0000          21.1000       PFind                   None            0.00    0.00    None
 26.7000         3.3360           0.0000          0.0000           298.33         7.03          0.1000            0.0000          35.8000       PFind                   None            0.00    0.00    None
 27.9600         3.1885           0.0000          0.0000            92.50         2.18          0.0600            0.0000          12.9500       PFind                   None            0.00    0.00    None
 29.8400         2.9917           0.0000          0.0000           110.00         2.59          0.0600            0.0000           6.6000       PFind                   None            0.00    0.00    None
 31.6200         2.8273           0.0000          0.0000            31.67         0.75          0.0600            0.0000           4.4333       PFind                   None            0.00    0.00    None
 32.5800         2.7461           0.0000          0.0000            35.83         0.84          0.1600            0.0000           0.7167       PFind                   None            0.00    0.00    None
 35.6400         2.5170           0.0000          0.0000            20.83         0.49          0.0600            0.0000           0.4167       PFind                   None            0.00    0.00    None
 36.7400         2.4442           0.0000          0.0000            20.83         0.49          0.1200            0.0000           0.0000       PFind                   None            0.00    0.00    None
 39.0600         2.3042           0.0000          0.0000            20.83         0.49          0.1200            0.0000           0.4167       PFind                   None            0.00    0.00    None
 39.8800         2.2587           0.0000          0.0000            38.33         0.90          0.0000            0.0000           4.6000       PFind                   None            0.00    0.00    None
 41.6600         2.1662           0.0000          0.0000            15.83         0.37          0.0000            0.0000           0.0000       PFind                   None            0.00    0.00    None
 42.3800         2.1310           0.0000          0.0000            32.50         0.77          0.0800            0.0000           1.3000       PFind                   None            0.00    0.00    None
 43.5000         2.0787           0.0000          0.0000            16.67         0.39          0.0000            0.0000           0.0000       PFind                   None            0.00    0.00    None
 45.6400         1.9861           0.0000          0.0000           127.50         3.01          0.0800            0.0000          17.8500       PFind                   None            0.00    0.00    None
 47.3600         1.9179           0.0000          0.0000            16.67         0.39          0.0400            0.0000           0.6667       PFind                   None            0.00    0.00    None
 49.0600         1.8553           0.0000          0.0000            28.33         0.67          0.0400            0.0000           2.8333       PFind                   None            0.00    0.00    None
 57.6200         1.5984           0.0000          0.0000            23.33         0.55          0.0600            0.0000           0.4667       PFind                   None            0.00    0.00    None
 63.8600         1.4564           0.0000          0.0000            17.50         0.41          0.0200            0.0000           0.0000       PFind                   None            0.00    0.00    None
 64.4600         1.4443           0.0000          0.0000           715.83        16.88          0.1600            0.0000         114.5333       PFind                   None            0.00    0.00    None

File: 12_2.txt
Position	Dspace	ESD(P)	Corr.Fact	Intensity	Rel.Int.	FWHM(L)	ESD(L)	Area
[deg]	[A]	[deg]	[deg]	[CPS]	[CPS]	[deg]	[deg]	[deg]
2.6800	32.9387	0.0000	0.0000	75.83	2.80	0.0400	0.0000	7.5833
3.0200	29.2311	0.0000	0.0000	79.17	2.92	0.0800	0.0000	3.1667
3.4400	25.6631	0.0000	0.0000	59.17	2.19	0.1200	0.0000	4.7333
3.9200	22.5217	0.0000	0.0000	38.33	1.42	0.1000	0.0000	3.0667
4.2400	20.8226	0.0000	0.0000	53.33	1.97	0.0200	0.0000	4.2667
4.5600	19.3621	0.0000	0.0000	44.17	1.63	0.0800	0.0000	5.3000
4.8800	18.0931	0.0000	0.0000	42.50	1.57	0.0400	0.0000	0.0000
5.4200	16.2916	0.0000	0.0000	37.50	1.39	0.1600	0.0000	0.7500
5.6200	15.7123	0.0000	0.0000	38.33	1.42	0.0800	0.0000	2.3000
6.2000	14.2437	0.0000	0.0000	155.00	5.73	0.0600	0.0000	12.4000
6.5600	13.4628	0.0000	0.0000	38.33	1.42	0.1000	0.0000	1.5333
7.0000	12.6175	0.0000	0.0000	34.17	1.26	0.1200	0.0000	0.6833
7.3800	11.9687	0.0000	0.0000	37.50	1.39	0.1000	0.0000	0.0000
7.8000	11.3251	0.0000	0.0000	26.67	0.99	0.0200	0.0000	2.6667
8.1800	10.7998	0.0000	0.0000	29.17	1.08	0.0600	0.0000	1.7500
8.8400	9.9949	0.0000	0.0000	802.50	29.65	0.0400	0.0000	64.2000
9.1800	9.6255	0.0000	0.0000	40.83	1.51	0.0400	0.0000	0.8167
9.7600	9.0548	0.0000	0.0000	27.50	1.02	0.0800	0.0000	0.0000
10.1800	8.6821	0.0000	0.0000	25.00	0.92	0.0400	0.0000	1.0000
10.7000	8.2613	0.0000	0.0000	20.00	0.74	0.0200	0.0000	0.8000
11.0400	8.0076	0.0000	0.0000	24.17	0.89	0.0200	0.0000	0.0000
12.1400	7.2844	0.0000	0.0000	195.83	7.24	0.0200	0.0000	15.6667
12.4600	7.0981	0.0000	0.0000	345.83	12.78	0.0800	0.0000	20.7500
12.8400	6.8888	0.0000	0.0000	22.50	0.83	0.0600	0.0000	0.0000
13.1800	6.7119	0.0000	0.0000	35.83	1.32	0.0600	0.0000	1.4333
13.6000	6.5055	0.0000	0.0000	50.00	1.85	0.0800	0.0000	5.0000
14.1200	6.2671	0.0000	0.0000	25.00	0.92	0.1000	0.0000	0.5000
14.4800	6.1121	0.0000	0.0000	20.83	0.77	0.0800	0.0000	0.4167
14.7200	6.0130	0.0000	0.0000	30.00	1.11	0.1400	0.0000	1.8000
15.1400	5.8471	0.0000	0.0000	21.67	0.80	0.1000	0.0000	0.4333
16.0800	5.5073	0.0000	0.0000	25.00	0.92	0.0600	0.0000	1.0000
17.4200	5.0866	0.0000	0.0000	29.17	1.08	0.0400	0.0000	2.3333
17.9800	4.9294	0.0000	0.0000	27.50	1.02	0.0800	0.0000	3.3000
18.7400	4.7312	0.0000	0.0000	135.00	4.99	0.0200	0.0000	13.5000
19.4400	4.5624	0.0000	0.0000	25.00	0.92	0.0400	0.0000	0.5000
20.1200	4.4097	0.0000	0.0000	21.67	0.80	0.1400	0.0000	0.4333
20.8000	4.2670	0.0000	0.0000	671.67	24.82	0.1000	0.0000	53.7333
22.0000	4.0369	0.0000	0.0000	292.50	10.81	0.0400	0.0000	29.2500
22.4400	3.9588	0.0000	0.0000	20.00	0.74	0.1200	0.0000	0.0000
23.0000	3.8636	0.0000	0.0000	47.50	1.75	0.1000	0.0000	4.7500
23.7600	3.7417	0.0000	0.0000	20.00	0.74	0.1000	0.0000	0.8000
24.2600	3.6657	0.0000	0.0000	82.50	3.05	0.0200	0.0000	8.2500
24.8000	3.5871	0.0000	0.0000	52.50	1.94	0.0600	0.0000	6.3000
25.4400	3.4983	0.0000	0.0000	78.33	2.89	0.0400	0.0000	6.2667
26.8200	3.3214	0.0000	0.0000	835.83	30.88	0.0600	0.0000	100.3000
27.4800	3.2431	0.0000	0.0000	556.67	20.57	0.0200	0.0000	55.6667
27.9200	3.1929	0.0000	0.0000	626.67	23.15	0.0800	0.0000	75.2000
28.7000	3.1079	0.0000	0.0000	53.33	1.97	0.0400	0.0000	8.5333
29.4400	3.0315	0.0000	0.0000	21.67	0.80	0.0600	0.0000	3.0333
30.0400	2.9723	0.0000	0.0000	45.00	1.66	0.1000	0.0000	1.8000
30.4400	2.9341	0.0000	0.0000	81.67	3.02	0.0400	0.0000	4.9000
31.2400	2.8608	0.0000	0.0000	62.50	2.31	0.0600	0.0000	7.5000
32.0600	2.7895	0.0000	0.0000	40.00	1.48	0.0200	0.0000	6.4000
32.6600	2.7396	0.0000	0.0000	20.00	0.74	0.0000	0.0000	0.4000
33.1000	2.7041	0.0000	0.0000	35.83	1.32	0.0600	0.0000	2.1500
33.6600	2.6604	0.0000	0.0000	20.00	0.74	0.0600	0.0000	0.4000
34.0000	2.6346	0.0000	0.0000	38.33	1.42	0.1200	0.0000	0.0000
34.6400	2.5874	0.0000	0.0000	40.83	1.51	0.1200	0.0000	4.9000
35.5000	2.5266	0.0000	0.0000	75.83	2.80	0.0000	0.0000	10.6167
36.1000	2.4860	0.0000	0.0000	49.17	1.82	0.1200	0.0000	5.9000
36.9400	2.4314	0.0000	0.0000	30.83	1.14	0.0000	0.0000	0.6167
37.3600	2.4050	0.0000	0.0000	41.67	1.54	0.0000	0.0000	3.3333
38.5200	2.3352	0.0000	0.0000	28.33	1.05	0.0200	0.0000	0.5667
39.4200	2.2839	0.0000	0.0000	146.67	5.42	0.0400	0.0000	8.8000
40.2400	2.2393	0.0000	0.0000	94.17	3.48	0.0600	0.0000	7.5333
41.9200	2.1533	0.0000	0.0000	25.00	0.92	0.0800	0.0000	4.0000
43.5400	2.0769	0.0000	0.0000	26.67	0.99	0.1600	0.0000	2.1333
44.5400	2.0326	0.0000	0.0000	98.33	3.63	0.0600	0.0000	15.7333
45.0400	2.0111	0.0000	0.0000	30.00	1.11	0.1200	0.0000	4.8000
45.7400	1.9820	0.0000	0.0000	215.00	7.94	0.0600	0.0000	21.5000
46.6200	1.9466	0.0000	0.0000	24.17	0.89	0.0200	0.0000	0.4833
47.8400	1.8998	0.0000	0.0000	25.83	0.95	0.1600	0.0000	0.0000
48.3200	1.8820	0.0000	0.0000	20.00	0.74	0.0400	0.0000	2.0000
49.1600	1.8518	0.0000	0.0000	22.50	0.83	0.1200	0.0000	0.9000
50.1000	1.8192	0.0000	0.0000	433.33	16.01	0.0800	0.0000	26.0000
50.6800	1.7998	0.0000	0.0000	58.33	2.16	0.1000	0.0000	7.0000
51.2000	1.7827	0.0000	0.0000	30.00	1.11	0.1200	0.0000	1.8000
51.6000	1.7698	0.0000	0.0000	23.33	0.86	0.0200	0.0000	0.9333
52.2600	1.7490	0.0000	0.0000	20.83	0.77	0.0000	0.0000	0.4167
53.1600	1.7215	0.0000	0.0000	33.33	1.23	0.0200	0.0000	4.0000
54.4000	1.6852	0.0000	0.0000	26.67	0.99	0.1400	0.0000	0.0000
55.0000	1.6682	0.0000	0.0000	49.17	1.82	0.1200	0.0000	3.9333
55.4200	1.6565	0.0000	0.0000	22.50	0.83	0.0400	0.0000	2.7000
55.8400	1.6451	0.0000	0.0000	64.17	2.37	0.1600	0.0000	3.8500
57.2000	1.6091	0.0000	0.0000	25.00	0.92	0.0200	0.0000	1.5000
57.9600	1.5898	0.0000	0.0000	27.50	1.02	0.0600	0.0000	2.7500
58.9000	1.5667	0.0000	0.0000	29.17	1.08	0.0000	0.0000	0.0000
59.2000	1.5595	0.0000	0.0000	40.83	1.51	0.1000	0.0000	2.4500
59.6200	1.5495	0.0000	0.0000	20.83	0.77	0.1000	0.0000	0.4167
60.0600	1.5392	0.0000	0.0000	184.17	6.80	0.0600	0.0000	14.7333
60.7800	1.5226	0.0000	0.0000	22.50	0.83	0.0800	0.0000	1.8000
61.4200	1.5083	0.0000	0.0000	34.17	1.26	0.1200	0.0000	1.3667
61.8600	1.4986	0.0000	0.0000	33.33	1.23	0.0200	0.0000	2.0000
63.8600	1.4564	0.0000	0.0000	24.17	0.89	0.0600	0.0000	2.4167
64.1800	1.4499	0.0000	0.0000	20.83	0.77	0.0800	0.0000	0.4167
64.3600	1.4463	0.0000	0.0000	20.00	0.74	0.0800	0.0000	0.4000