Folder: Non-Linear-XRD-Inversion/Generating XRD fingerprints/INPUT/Detrital data (part 22)

File: 28_7_11_26_2.txt
Position	Dspace	ESD(P)	Corr.Fact	Intensity	Rel.Int.	FWHM(L)	ESD(L)	Area	Source	Curve	Strain	CSize	CSize_Source
[deg]	[A]	[deg]	[deg]	[CPS]	[CPS]	[deg]	[deg]	[deg]	[--]	[--]	[--]	[--]	[--]
2.7600	31.9841	0.0000	0.0000	55.00	4.73	0.1400	0.0000	4.4000	PFind	None	0.00	0.00	None
2.8600	30.8660	0.0000	0.0000	47.50	4.09	0.0400	0.0000	2.8500	PFind	None	0.00	0.00	None
3.0000	29.4259	0.0000	0.0000	47.50	4.09	0.0800	0.0000	6.6500	PFind	None	0.00	0.00	None
3.1200	28.2944	0.0000	0.0000	55.83	4.80	0.1200	0.0000	0.0000	PFind	None	0.00	0.00	None
3.2000	27.5872	0.0000	0.0000	54.17	4.66	0.0400	0.0000	2.1667	PFind	None	0.00	0.00	None
3.4000	25.9649	0.0000	0.0000	42.50	3.66	0.1600	0.0000	1.7000	PFind	None	0.00	0.00	None
3.5800	24.6598	0.0000	0.0000	44.17	3.80	0.0800	0.0000	6.1833	PFind	None	0.00	0.00	None
4.0000	22.0714	0.0000	0.0000	44.17	3.80	0.1200	0.0000	4.4167	PFind	None	0.00	0.00	None
4.2000	21.0208	0.0000	0.0000	40.00	3.44	0.0200	0.0000	4.0000	PFind	None	0.00	0.00	None
4.3200	20.4372	0.0000	0.0000	39.17	3.37	0.0800	0.0000	2.3500	PFind	None	0.00	0.00	None
5.8600	15.0693	0.0000	0.0000	40.83	3.51	0.0800	0.0000	4.0833	PFind	None	0.00	0.00	None
6.0400	14.6206	0.0000	0.0000	65.00	5.59	0.1200	0.0000	9.1000	PFind	None	0.00	0.00	None
6.2800	14.0624	0.0000	0.0000	64.17	5.52	0.1400	0.0000	10.2667	PFind	None	0.00	0.00	None
6.3400	13.9295	0.0000	0.0000	78.33	6.74	0.0800	0.0000	9.4000	PFind	None	0.00	0.00	None
7.1800	12.3016	0.0000	0.0000	39.17	3.37	0.1000	0.0000	1.5667	PFind	None	0.00	0.00	None
8.9600	9.8614	0.0000	0.0000	217.50	18.71	0.1000	0.0000	30.4500	PFind	None	0.00	0.00	None
9.5400	9.2631	0.0000	0.0000	44.17	3.80	0.0600	0.0000	1.7667	PFind	None	0.00	0.00	None
10.6000	8.3390	0.0000	0.0000	60.00	5.16	0.1000	0.0000	6.0000	PFind	None	0.00	0.00	None
12.3000	7.1900	0.0000	0.0000	345.83	29.75	0.0400	0.0000	55.3333	PFind	None	0.00	0.00	None
12.5800	7.0306	0.0000	0.0000	193.33	16.63	0.1400	0.0000	27.0667	PFind	None	0.00	0.00	None
17.9400	4.9403	0.0000	0.0000	126.67	10.90	0.1000	0.0000	12.6667	PFind	None	0.00	0.00	None
18.6400	4.7563	0.0000	0.0000	52.50	4.52	0.1000	0.0000	6.3000	PFind	None	0.00	0.00	None
18.9000	4.6915	0.0000	0.0000	97.50	8.39	0.1600	0.0000	13.6500	PFind	None	0.00	0.00	None
19.9000	4.4579	0.0000	0.0000	45.83	3.94	0.1600	0.0000	1.8333	PFind	None	0.00	0.00	None
20.9800	4.2308	0.0000	0.0000	235.83	20.29	0.1000	0.0000	37.7333	PFind	None	0.00	0.00	None
22.1400	4.0117	0.0000	0.0000	126.67	10.90	0.0400	0.0000	17.7333	PFind	None	0.00	0.00	None
22.6000	3.9311	0.0000	0.0000	40.00	3.44	0.0200	0.0000	4.0000	PFind	None	0.00	0.00	None
23.0400	3.8570	0.0000	0.0000	44.17	3.80	0.1200	0.0000	7.0667	PFind	None	0.00	0.00	None
23.6400	3.7604	0.0000	0.0000	132.50	11.40	0.0400	0.0000	13.2500	PFind	None	0.00	0.00	None
23.7800	3.7386	0.0000	0.0000	65.00	5.59	0.1200	0.0000	3.9000	PFind	None	0.00	0.00	None
24.3400	3.6539	0.0000	0.0000	60.00	5.16	0.0400	0.0000	7.2000	PFind	None	0.00	0.00	None
24.7000	3.6014	0.0000	0.0000	365.00	31.40	0.0400	0.0000	51.1000	PFind	None	0.00	0.00	None
25.2600	3.5228	0.0000	0.0000	205.00	17.63	0.0600	0.0000	28.7000	PFind	None	0.00	0.00	None
25.6200	3.4741	0.0000	0.0000	85.00	7.31	0.1600	0.0000	13.6000	PFind	None	0.00	0.00	None
26.7400	3.3311	0.0000	0.0000	1162.50	100.00	0.0800	0.0000	162.7500	PFind	None	0.00	0.00	None
27.5600	3.2338	0.0000	0.0000	108.33	9.32	0.1200	0.0000	8.6667	PFind	None	0.00	0.00	None
28.0000	3.1840	0.0000	0.0000	410.83	35.34	0.0600	0.0000	65.7333	PFind	None	0.00	0.00	None
28.4200	3.1379	0.0000	0.0000	125.00	10.75	0.1600	0.0000	7.5000	PFind	None	0.00	0.00	None
28.7800	3.0995	0.0000	0.0000	117.50	10.11	0.1000	0.0000	18.8000	PFind	None	0.00	0.00	None
29.9600	2.9800	0.0000	0.0000	101.67	8.75	0.1600	0.0000	16.2667	PFind	None	0.00	0.00	None
30.3800	2.9398	0.0000	0.0000	106.67	9.18	0.0400	0.0000	4.2667	PFind	None	0.00	0.00	None
30.5400	2.9247	0.0000	0.0000	93.33	8.03	0.0600	0.0000	11.2000	PFind	None	0.00	0.00	None
30.9200	2.8896	0.0000	0.0000	57.50	4.95	0.1600	0.0000	6.9000	PFind	None	0.00	0.00	None
31.3600	2.8501	0.0000	0.0000	87.50	7.53	0.1400	0.0000	14.0000	PFind	None	0.00	0.00	None
31.6800	2.8220	0.0000	0.0000	52.50	4.52	0.1600	0.0000	7.3500	PFind	None	0.00	0.00	None
32.2600	2.7726	0.0000	0.0000	72.50	6.24	0.1600	0.0000	11.6000	PFind	None	0.00	0.00	None
32.3400	2.7659	0.0000	0.0000	80.83	6.95	0.1400	0.0000	6.4667	PFind	None	0.00	0.00	None
33.1800	2.6978	0.0000	0.0000	53.33	4.59	0.1000	0.0000	2.1333	PFind	None	0.00	0.00	None
34.5600	2.5932	0.0000	0.0000	45.83	3.94	0.1200	0.0000	4.5833	PFind	None	0.00	0.00	None
35.1000	2.5545	0.0000	0.0000	127.50	10.97	0.1400	0.0000	20.4000	PFind	None	0.00	0.00	None
35.4400	2.5308	0.0000	0.0000	89.17	7.67	0.1200	0.0000	3.5667	PFind	None	0.00	0.00	None
35.6200	2.5184	0.0000	0.0000	107.50	9.25	0.1400	0.0000	10.7500	PFind	None	0.00	0.00	None
36.1600	2.4820	0.0000	0.0000	47.50	4.09	0.0600	0.0000	5.7000	PFind	None	0.00	0.00	None
36.6000	2.4532	0.0000	0.0000	132.50	11.40	0.1200	0.0000	13.2500	PFind	None	0.00	0.00	None
37.7400	2.3817	0.0000	0.0000	40.00	3.44	0.0200	0.0000	6.4000	PFind	None	0.00	0.00	None
37.8400	2.3756	0.0000	0.0000	45.83	3.94	0.1400	0.0000	7.3333	PFind	None	0.00	0.00	None
38.1600	2.3564	0.0000	0.0000	65.83	5.66	0.0400	0.0000	9.2167	PFind	None	0.00	0.00	None
39.0000	2.3076	0.0000	0.0000	44.17	3.80	0.0600	0.0000	1.7667	PFind	None	0.00	0.00	None
39.2600	2.2929	0.0000	0.0000	153.33	13.19	0.1600	0.0000	6.1333	PFind	None	0.00	0.00	None
39.5200	2.2784	0.0000	0.0000	240.83	20.72	0.1400	0.0000	24.0833	PFind	None	0.00	0.00	None
40.3800	2.2318	0.0000	0.0000	55.00	4.73	0.1600	0.0000	8.8000	PFind	None	0.00	0.00	None
41.7800	2.1602	0.0000	0.0000	64.17	5.52	0.1600	0.0000	6.4167	PFind	None	0.00	0.00	None
42.0600	2.1465	0.0000	0.0000	42.50	3.66	0.1400	0.0000	3.4000	PFind	None	0.00	0.00	None
42.5800	2.1215	0.0000	0.0000	97.50	8.39	0.1000	0.0000	15.6000	PFind	None	0.00	0.00	None
44.3400	2.0413	0.0000	0.0000	61.67	5.30	0.0800	0.0000	4.9333	PFind	None	0.00	0.00	None
45.1600	2.0061	0.0000	0.0000	76.67	6.59	0.1600	0.0000	12.2667	PFind	None	0.00	0.00	None
45.6600	1.9853	0.0000	0.0000	195.83	16.85	0.1000	0.0000	31.3333	PFind	None	0.00	0.00	None
48.2000	1.8864	0.0000	0.0000	51.67	4.44	0.0800	0.0000	3.1000	PFind	None	0.00	0.00	None
48.2600	1.8842	0.0000	0.0000	49.17	4.23	0.0800	0.0000	3.9333	PFind	None	0.00	0.00	None
49.3200	1.8462	0.0000	0.0000	399.17	34.34	0.1400	0.0000	15.9667	PFind	None	0.00	0.00	None
50.0000	1.8226	0.0000	0.0000	63.33	5.45	0.1600	0.0000	8.8667	PFind	None	0.00	0.00	None
50.2600	1.8138	0.0000	0.0000	380.83	32.76	0.0000	0.0000	45.7000	PFind	None	0.00	0.00	None
50.7200	1.7984	0.0000	0.0000	41.67	3.58	0.1000	0.0000	6.6667	PFind	None	0.00	0.00	None
52.3400	1.7465	0.0000	0.0000	55.83	4.80	0.1000	0.0000	3.3500	PFind	None	0.00	0.00	None
52.5200	1.7410	0.0000	0.0000	39.17	3.37	0.1000	0.0000	4.7000	PFind	None	0.00	0.00	None
54.9400	1.6699	0.0000	0.0000	95.83	8.24	0.1000	0.0000	5.7500	PFind	None	0.00	0.00	None
55.0800	1.6659	0.0000	0.0000	73.33	6.31	0.0600	0.0000	8.8000	PFind	None	0.00	0.00	None
55.2600	1.6609	0.0000	0.0000	40.83	3.51	0.0600	0.0000	3.2667	PFind	None	0.00	0.00	None
55.3800	1.6576	0.0000	0.0000	55.00	4.73	0.1600	0.0000	7.7000	PFind	None	0.00	0.00	None
55.8800	1.6440	0.0000	0.0000	54.17	4.66	0.0400	0.0000	8.6667	PFind	None	0.00	0.00	None
55.9800	1.6413	0.0000	0.0000	55.00	4.73	0.1000	0.0000	5.5000	PFind	None	0.00	0.00	None
60.0400	1.5396	0.0000	0.0000	118.33	10.18	0.1400	0.0000	11.8333	PFind	None	0.00	0.00	None
60.3600	1.5322	0.0000	0.0000	97.50	8.39	0.1400	0.0000	5.8500	PFind	None	0.00	0.00	None
60.4800	1.5295	0.0000	0.0000	70.00	6.02	0.1600	0.0000	5.6000	PFind	None	0.00	0.00	None
60.6400	1.5258	0.0000	0.0000	47.50	4.09	0.1600	0.0000	0.9500	PFind	None	0.00	0.00	None
60.9800	1.5181	0.0000	0.0000	48.33	4.16	0.1600	0.0000	0.9667	PFind	None	0.00	0.00	None
61.5400	1.5057	0.0000	0.0000	55.83	4.80	0.0400	0.0000	1.1167	PFind	None	0.00	0.00	None
61.7200	1.5017	0.0000	0.0000	40.83	3.51	0.1000	0.0000	4.0833	PFind	None	0.00	0.00	None
64.4600	1.4443	0.0000	0.0000	86.67	7.46	0.1400	0.0000	8.6667	PFind	None	0.00	0.00	None
64.6600	1.4403	0.0000	0.0000	49.17	4.23	0.1600	0.0000	3.9333	PFind	None	0.00	0.00	None

File: 28_7_11_26_4.txt
Position	Dspace	ESD(P)	Corr.Fact	Intensity	Rel.Int.	FWHM(L)	ESD(L)	Area	Source	Curve	Strain	CSize	CSize_Source
[deg]	[A]	[deg]	[deg]	[CPS]	[CPS]	[deg]	[deg]	[deg]	[--]	[--]	[--]	[--]	[--]
2.8000	31.5273	0.0000	0.0000	55.83	2.18	0.0800	0.0000	2.2333	PFind	None	0.00	0.00	None
3.0000	29.4259	0.0000	0.0000	64.17	2.51	0.0400	0.0000	2.5667	PFind	None	0.00	0.00	None
3.1800	27.7607	0.0000	0.0000	54.17	2.12	0.0600	0.0000	7.5833	PFind	None	0.00	0.00	None
3.3800	26.1185	0.0000	0.0000	57.50	2.25	0.1400	0.0000	4.6000	PFind	None	0.00	0.00	None
3.7000	23.8603	0.0000	0.0000	64.17	2.51	0.1000	0.0000	1.2833	PFind	None	0.00	0.00	None
3.9200	22.5217	0.0000	0.0000	57.50	2.25	0.0800	0.0000	2.3000	PFind	None	0.00	0.00	None
4.0400	21.8530	0.0000	0.0000	56.67	2.22	0.1400	0.0000	0.0000	PFind	None	0.00	0.00	None
4.2600	20.7249	0.0000	0.0000	42.50	1.66	0.1400	0.0000	1.7000	PFind	None	0.00	0.00	None
4.5000	19.6201	0.0000	0.0000	45.83	1.79	0.0200	0.0000	1.8333	PFind	None	0.00	0.00	None
4.6400	19.0284	0.0000	0.0000	45.00	1.76	0.0400	0.0000	2.7000	PFind	None	0.00	0.00	None
5.4400	16.2318	0.0000	0.0000	40.83	1.60	0.0000	0.0000	0.8167	PFind	None	0.00	0.00	None
5.9200	14.9167	0.0000	0.0000	308.33	12.06	0.1000	0.0000	49.3333	PFind	None	0.00	0.00	None
6.1400	14.3827	0.0000	0.0000	282.50	11.05	0.1200	0.0000	45.2000	PFind	None	0.00	0.00	None
6.6600	13.2609	0.0000	0.0000	65.83	2.57	0.1200	0.0000	5.2667	PFind	None	0.00	0.00	None
7.0600	12.5104	0.0000	0.0000	39.17	1.53	0.1000	0.0000	3.1333	PFind	None	0.00	0.00	None
7.3800	11.9687	0.0000	0.0000	43.33	1.69	0.0800	0.0000	0.0000	PFind	None	0.00	0.00	None
8.8200	10.0176	0.0000	0.0000	1360.83	53.23	0.0200	0.0000	136.0833	PFind	None	0.00	0.00	None
9.1200	9.6887	0.0000	0.0000	107.50	4.20	0.0800	0.0000	12.9000	PFind	None	0.00	0.00	None
9.3600	9.4408	0.0000	0.0000	117.50	4.60	0.1000	0.0000	11.7500	PFind	None	0.00	0.00	None
10.5000	8.4182	0.0000	0.0000	80.00	3.13	0.1000	0.0000	8.0000	PFind	None	0.00	0.00	None
11.7200	7.5445	0.0000	0.0000	40.00	1.56	0.0800	0.0000	1.6000	PFind	None	0.00	0.00	None
12.1200	7.2964	0.0000	0.0000	1346.67	52.67	0.0400	0.0000	107.7333	PFind	None	0.00	0.00	None
12.4200	7.1208	0.0000	0.0000	885.00	34.62	0.0400	0.0000	106.2000	PFind	None	0.00	0.00	None
13.7600	6.4302	0.0000	0.0000	69.17	2.71	0.1000	0.0000	5.5333	PFind	None	0.00	0.00	None
14.9200	5.9328	0.0000	0.0000	82.50	3.23	0.1600	0.0000	4.9500	PFind	None	0.00	0.00	None
17.7600	4.9900	0.0000	0.0000	779.17	30.48	0.0200	0.0000	77.9167	PFind	None	0.00	0.00	None
18.5000	4.7920	0.0000	0.0000	189.17	7.40	0.1200	0.0000	26.4833	PFind	None	0.00	0.00	None
18.7200	4.7362	0.0000	0.0000	413.33	16.17	0.0000	0.0000	41.3333	PFind	None	0.00	0.00	None
20.8000	4.2670	0.0000	0.0000	1595.83	62.42	0.0800	0.0000	95.7500	PFind	None	0.00	0.00	None
21.9600	4.0442	0.0000	0.0000	270.83	10.59	0.1000	0.0000	27.0833	PFind	None	0.00	0.00	None
23.0000	3.8636	0.0000	0.0000	40.83	1.60	0.0600	0.0000	4.9000	PFind	None	0.00	0.00	None
23.5200	3.7794	0.0000	0.0000	127.50	4.99	0.0600	0.0000	10.2000	PFind	None	0.00	0.00	None
24.2200	3.6717	0.0000	0.0000	95.83	3.75	0.1400	0.0000	15.3333	PFind	None	0.00	0.00	None
24.5600	3.6216	0.0000	0.0000	819.17	32.04	0.0600	0.0000	114.6833	PFind	None	0.00	0.00	None
25.0800	3.5477	0.0000	0.0000	648.33	25.36	0.0800	0.0000	90.7667	PFind	None	0.00	0.00	None
25.5400	3.4848	0.0000	0.0000	124.17	4.86	0.1000	0.0000	19.8667	PFind	None	0.00	0.00	None
26.5600	3.3533	0.0000	0.0000	2396.67	93.74	0.0400	0.0000	239.6667	PFind	None	0.00	0.00	None
26.8200	3.3214	0.0000	0.0000	2145.00	83.90	0.1400	0.0000	300.3000	PFind	None	0.00	0.00	None
27.4200	3.2500	0.0000	0.0000	240.00	9.39	0.1000	0.0000	24.0000	PFind	None	0.00	0.00	None
27.8200	3.2042	0.0000	0.0000	709.17	27.74	0.1600	0.0000	70.9167	PFind	None	0.00	0.00	None
28.2200	3.1597	0.0000	0.0000	77.50	3.03	0.1600	0.0000	12.4000	PFind	None	0.00	0.00	None
28.5400	3.1250	0.0000	0.0000	164.17	6.42	0.0800	0.0000	22.9833	PFind	None	0.00	0.00	None
29.7400	3.0016	0.0000	0.0000	75.00	2.93	0.1400	0.0000	7.5000	PFind	None	0.00	0.00	None
30.1200	2.9646	0.0000	0.0000	98.33	3.85	0.1600	0.0000	11.8000	PFind	None	0.00	0.00	None
30.4200	2.9360	0.0000	0.0000	60.83	2.38	0.1600	0.0000	6.0833	PFind	None	0.00	0.00	None
30.8000	2.9006	0.0000	0.0000	55.83	2.18	0.0800	0.0000	2.2333	PFind	None	0.00	0.00	None
31.1600	2.8679	0.0000	0.0000	80.00	3.13	0.1400	0.0000	12.8000	PFind	None	0.00	0.00	None
31.5200	2.8360	0.0000	0.0000	107.50	4.20	0.1200	0.0000	12.9000	PFind	None	0.00	0.00	None
34.2600	2.6152	0.0000	0.0000	43.33	1.69	0.0800	0.0000	3.4667	PFind	None	0.00	0.00	None
34.9600	2.5644	0.0000	0.0000	45.00	1.76	0.0400	0.0000	3.6000	PFind	None	0.00	0.00	None
35.5600	2.5225	0.0000	0.0000	79.17	3.10	0.1000	0.0000	11.0833	PFind	None	0.00	0.00	None
36.0400	2.4900	0.0000	0.0000	121.67	4.76	0.1400	0.0000	17.0333	PFind	None	0.00	0.00	None
36.4600	2.4623	0.0000	0.0000	96.67	3.78	0.1400	0.0000	7.7333	PFind	None	0.00	0.00	None
37.1200	2.4200	0.0000	0.0000	41.67	1.63	0.0600	0.0000	3.3333	PFind	None	0.00	0.00	None
37.2000	2.4150	0.0000	0.0000	39.17	1.53	0.0600	0.0000	3.9167	PFind	None	0.00	0.00	None
38.0400	2.3636	0.0000	0.0000	2556.67	100.00	0.0400	0.0000	153.4000	PFind	None	0.00	0.00	None
39.4200	2.2839	0.0000	0.0000	80.83	3.16	0.1000	0.0000	6.4667	PFind	None	0.00	0.00	None
40.2200	2.2403	0.0000	0.0000	58.33	2.28	0.0800	0.0000	1.1667	PFind	None	0.00	0.00	None
40.3200	2.2350	0.0000	0.0000	40.00	1.56	0.0600	0.0000	1.6000	PFind	None	0.00	0.00	None
41.7000	2.1642	0.0000	0.0000	59.17	2.31	0.1200	0.0000	2.3667	PFind	None	0.00	0.00	None
42.4000	2.1301	0.0000	0.0000	196.67	7.69	0.0800	0.0000	11.8000	PFind	None	0.00	0.00	None
42.9200	2.1054	0.0000	0.0000	54.17	2.12	0.1000	0.0000	2.1667	PFind	None	0.00	0.00	None
44.2400	2.0456	0.0000	0.0000	1052.50	41.17	0.0000	0.0000	84.2000	PFind	None	0.00	0.00	None
44.8400	2.0197	0.0000	0.0000	43.33	1.69	0.0400	0.0000	3.4667	PFind	None	0.00	0.00	None
45.5400	1.9902	0.0000	0.0000	678.33	26.53	0.1600	0.0000	94.9667	PFind	None	0.00	0.00	None
50.0800	1.8199	0.0000	0.0000	107.50	4.20	0.1000	0.0000	6.4500	PFind	None	0.00	0.00	None
59.0800	1.5623	0.0000	0.0000	43.33	1.69	0.0600	0.0000	2.6000	PFind	None	0.00	0.00	None
59.2400	1.5585	0.0000	0.0000	47.50	1.86	0.0800	0.0000	0.0000	PFind	None	0.00	0.00	None
59.9200	1.5424	0.0000	0.0000	215.00	8.41	0.0400	0.0000	12.9000	PFind	None	0.00	0.00	None
60.0800	1.5387	0.0000	0.0000	115.00	4.50	0.0600	0.0000	9.2000	PFind	None	0.00	0.00	None
64.3800	1.4459	0.0000	0.0000	910.83	35.63	0.0400	0.0000	54.6500	PFind	None	0.00	0.00	None
64.5600	1.4423	0.0000	0.0000	445.00	17.41	0.0800	0.0000	44.5000	PFind	None	0.00	0.00	None

File: 28_7_12_08_2_PF_FILTER.txt
Filename:
	C:\Program Files\Thermo Electron\WinXRD\Datafiles\FIEN\28_7_12_08_2_FILTER.pk

File Created:
	April 15, 2019 - 03:49 PM

Specimen Id:
	28/7 12:08 2 FILTER

Specimen Name:

Specimen Description:

Comment:
Scan Type: 2Theta Scan
Start Angle: 1 deg.
Stop Angle: 65 deg.
Num Points: 3201
Step Size: 0.02 deg.
Scan Rate: 1.000000
Scan Mode: Continuous
Wavelength: 1.540562
\Kalpha1: 1.540562	\Kalpha2: 1.544390	\Kbeta: 1.392218

Optics:
		Detector:
			 Type: Fixed Slits
		Tube:
			 Type: Fixed Slits

Datas:
Peaks:

Position        Dspace          ESD(P)          Corr.Fact       Intensity       Rel.Int.        FWHM(L)         ESD(L)          Area            Source                  Curve           Strain  CSize   CSize_Source
[deg]           [A]             [deg]           [deg]           [CPS]           [CPS]           [deg]           [deg]           [deg]           [--]                    [--]            [--]    [--]    [--]
  2.9000        30.4404           0.0000          0.0000            75.00         2.85          0.1000            0.0000          10.5000       PFind                   None            0.00    0.00    None
  3.1800        27.7607           0.0000          0.0000            58.33         2.22          0.0200            0.0000           1.1667       PFind                   None            0.00    0.00    None
  3.3600        26.2739           0.0000          0.0000            46.67         1.78          0.0800            0.0000           5.6000       PFind                   None            0.00    0.00    None
  3.7200        23.7320           0.0000          0.0000            53.33         2.03          0.1400            0.0000           8.5333       PFind                   None            0.00    0.00    None
  3.8800        22.7538           0.0000          0.0000            58.33         2.22          0.0600            0.0000           0.0000       PFind                   None            0.00    0.00    None
  4.2400        20.8226           0.0000          0.0000            45.00         1.71          0.0600            0.0000           0.9000       PFind                   None            0.00    0.00    None
  4.9400        17.8735           0.0000          0.0000            46.67         1.78          0.0000            0.0000           3.7333       PFind                   None            0.00    0.00    None
  6.1800        14.2897           0.0000          0.0000           123.33         4.69          0.1000            0.0000          17.2667       PFind                   None            0.00    0.00    None
  7.0600        12.5104           0.0000          0.0000            50.83         1.93          0.0600            0.0000           4.0667       PFind                   None            0.00    0.00    None
 12.1200         7.2964           0.0000          0.0000           227.50         8.66          0.0200            0.0000          18.2000       PFind                   None            0.00    0.00    None
 13.6200         6.4960           0.0000          0.0000            59.17         2.25          0.1000            0.0000           3.5500       PFind                   None            0.00    0.00    None
 18.7600         4.7262           0.0000          0.0000            72.50         2.76          0.1400            0.0000           7.2500       PFind                   None            0.00    0.00    None
 22.0200         4.0333           0.0000          0.0000           146.67         5.58          0.1000            0.0000          14.6667       PFind                   None            0.00    0.00    None
 23.4800         3.7857           0.0000          0.0000            56.67         2.16          0.1200            0.0000           6.8000       PFind                   None            0.00    0.00    None
 24.1200         3.6867           0.0000          0.0000           240.00         9.13          0.0800            0.0000          19.2000       PFind                   None            0.00    0.00    None
 25.1200         3.5421           0.0000          0.0000           125.83         4.79          0.1000            0.0000          17.6167       PFind                   None            0.00    0.00    None
 26.5800         3.3508           0.0000          0.0000          2628.33       100.00          0.1400            0.0000         315.4000       PFind                   None            0.00    0.00    None
 27.8400         3.2019           0.0000          0.0000           443.33        16.87          0.0600            0.0000          62.0667       PFind                   None            0.00    0.00    None
 28.5400         3.1250           0.0000          0.0000            45.00         1.71          0.0400            0.0000           2.7000       PFind                   None            0.00    0.00    None
 30.4200         2.9360           0.0000          0.0000            69.17         2.63          0.0800            0.0000           5.5333       PFind                   None            0.00    0.00    None
 31.5400         2.8342           0.0000          0.0000            61.67         2.35          0.1400            0.0000           9.8667       PFind                   None            0.00    0.00    None
 34.9200         2.5673           0.0000          0.0000            50.83         1.93          0.0600            0.0000           5.0833       PFind                   None            0.00    0.00    None
 36.4800         2.4610           0.0000          0.0000           445.00        16.93          0.1200            0.0000          17.8000       PFind                   None            0.00    0.00    None
 38.4000         2.3422           0.0000          0.0000            58.33         2.22          0.0400            0.0000           3.5000       PFind                   None            0.00    0.00    None
 39.4200         2.2839           0.0000          0.0000           134.17         5.10          0.1000            0.0000          16.1000       PFind                   None            0.00    0.00    None
 42.3800         2.1310           0.0000          0.0000            90.00         3.42          0.1200            0.0000          10.8000       PFind                   None            0.00    0.00    None
 45.5200         1.9910           0.0000          0.0000           206.67         7.86          0.0800            0.0000          28.9333       PFind                   None            0.00    0.00    None
 46.6000         1.9474           0.0000          0.0000            45.83         1.74          0.0800            0.0000           2.7500       PFind                   None            0.00    0.00    None
 50.5200         1.8051           0.0000          0.0000           129.17         4.91          0.1400            0.0000           7.7500       PFind                   None            0.00    0.00    None
 54.8400         1.6727           0.0000          0.0000            66.67         2.54          0.0600            0.0000           6.6667       PFind                   None            0.00    0.00    None
 59.5400         1.5514           0.0000          0.0000            91.67         3.49          0.0800            0.0000           5.5000       PFind                   None            0.00    0.00    None
 59.9000         1.5429           0.0000          0.0000           227.50         8.66          0.0000            0.0000          18.2000       PFind                   None            0.00    0.00    None
 64.0000         1.4536           0.0000          0.0000            60.00         2.28          0.0400            0.0000           8.4000       PFind                   None            0.00    0.00    None
 64.3600         1.4463           0.0000          0.0000           204.17         7.77          0.1600            0.0000          12.2500       PFind                   None            0.00    0.00    None
 64.5400         1.4427           0.0000          0.0000           105.00         3.99          0.1200            0.0000           4.2000       PFind                   None            0.00    0.00    None