Folder: Non-Linear-XRD-Inversion/Generating XRD fingerprints/INPUT/Detrital data (part 27)

File: G20_pf_RT.txt
Filename:
	C:\Program Files\Thermo Electron\WinXRD\Datafiles\FIEN2\GEO\G20_RT.pk

File Created:
	February 25, 2021 - 09:38 AM

Specimen Id:
	G20_RT

Specimen Name:

Specimen Description:

Comment:
Scan Type: 2Theta Scan
Start Angle: 3 deg.
Stop Angle: 65 deg.
Num Points: 3101
Step Size: 0.02 deg.
Scan Rate: 1.000000
Scan Mode: Continuous
Wavelength: 1.540562
\Kalpha1: 1.540562	\Kalpha2: 1.544390	\Kbeta: 1.392218

Optics:
		Detector:
			 Type: Fixed Slits
		Tube:
			 Type: Fixed Slits

Datas:
Peaks:

Position        Dspace          ESD(P)          Corr.Fact       Intensity       Rel.Int.        FWHM(L)         ESD(L)          Area            Source                  Curve           Strain  CSize   CSize_Source
[deg]           [A]             [deg]           [deg]           [CPS]           [CPS]           [deg]           [deg]           [deg]           [--]                    [--]            [--]    [--]    [--]
  4.8000        18.3945           0.0000          0.0000            45.83         1.36          0.0800            0.0000           5.5000       PFind                   None            0.00    0.00    None
  5.3400        16.5355           0.0000          0.0000            40.83         1.21          0.0600            0.0000           3.2667       PFind                   None            0.00    0.00    None
  5.7800        15.2777           0.0000          0.0000            55.83         1.66          0.1600            0.0000           1.1167       PFind                   None            0.00    0.00    None
  6.4800        13.6288           0.0000          0.0000            55.00         1.63          0.1600            0.0000           5.5000       PFind                   None            0.00    0.00    None
  7.0600        12.5104           0.0000          0.0000            41.67         1.24          0.0800            0.0000           4.1667       PFind                   None            0.00    0.00    None
  7.6800        11.5018           0.0000          0.0000            40.83         1.21          0.1000            0.0000           2.4500       PFind                   None            0.00    0.00    None
  8.3400        10.5930           0.0000          0.0000            47.50         1.41          0.1200            0.0000           4.7500       PFind                   None            0.00    0.00    None
  9.1600         9.6465           0.0000          0.0000            51.67         1.54          0.1200            0.0000           8.2667       PFind                   None            0.00    0.00    None
  9.9800         8.8557           0.0000          0.0000            31.67         0.94          0.1200            0.0000           1.2667       PFind                   None            0.00    0.00    None
 10.5000         8.4182           0.0000          0.0000            50.83         1.51          0.1400            0.0000           4.0667       PFind                   None            0.00    0.00    None
 12.2200         7.2369           0.0000          0.0000           417.50        12.40          0.0200            0.0000          33.4000       PFind                   None            0.00    0.00    None
 13.8600         6.3841           0.0000          0.0000            40.00         1.19          0.1200            0.0000           5.6000       PFind                   None            0.00    0.00    None
 14.5400         6.0870           0.0000          0.0000            30.00         0.89          0.1600            0.0000           0.6000       PFind                   None            0.00    0.00    None
 17.8400         4.9678           0.0000          0.0000           196.67         5.84          0.0400            0.0000          23.6000       PFind                   None            0.00    0.00    None
 19.8600         4.4668           0.0000          0.0000            54.17         1.61          0.0800            0.0000           8.6667       PFind                   None            0.00    0.00    None
 23.1000         3.8471           0.0000          0.0000            66.67         1.98          0.1000            0.0000           8.0000       PFind                   None            0.00    0.00    None
 24.5800         3.6187           0.0000          0.0000           194.17         5.77          0.0600            0.0000          23.3000       PFind                   None            0.00    0.00    None
 25.5200         3.4875           0.0000          0.0000           112.50         3.34          0.0200            0.0000          18.0000       PFind                   None            0.00    0.00    None
 27.5800         3.2315           0.0000          0.0000            79.17         2.35          0.0200            0.0000          12.6667       PFind                   None            0.00    0.00    None
 28.2400         3.1575           0.0000          0.0000            73.33         2.18          0.1200            0.0000          11.7333       PFind                   None            0.00    0.00    None
 30.1400         2.9626           0.0000          0.0000            55.00         1.63          0.1400            0.0000           8.8000       PFind                   None            0.00    0.00    None
 30.8600         2.8951           0.0000          0.0000           202.50         6.02          0.0800            0.0000          20.2500       PFind                   None            0.00    0.00    None
 32.1600         2.7810           0.0000          0.0000            65.00         1.93          0.0800            0.0000           9.1000       PFind                   None            0.00    0.00    None
 34.6400         2.5874           0.0000          0.0000            66.67         1.98          0.0000            0.0000           5.3333       PFind                   None            0.00    0.00    None
 35.5600         2.5225           0.0000          0.0000           163.33         4.85          0.0600            0.0000          19.6000       PFind                   None            0.00    0.00    None
 37.1400         2.4187           0.0000          0.0000            41.67         1.24          0.1400            0.0000           2.5000       PFind                   None            0.00    0.00    None
 40.3000         2.2361           0.0000          0.0000           102.50         3.05          0.1400            0.0000           8.2000       PFind                   None            0.00    0.00    None
 42.9800         2.1026           0.0000          0.0000            34.17         1.02          0.0800            0.0000           4.7833       PFind                   None            0.00    0.00    None
 44.5400         2.0326           0.0000          0.0000           150.00         4.46          0.0800            0.0000          24.0000       PFind                   None            0.00    0.00    None
 45.7400         1.9820           0.0000          0.0000           130.83         3.89          0.0800            0.0000          20.9333       PFind                   None            0.00    0.00    None
 48.1400         1.8886           0.0000          0.0000            59.17         1.76          0.1600            0.0000           4.7333       PFind                   None            0.00    0.00    None
 49.3600         1.8448           0.0000          0.0000            47.50         1.41          0.0000            0.0000           3.8000       PFind                   None            0.00    0.00    None
 50.7000         1.7991           0.0000          0.0000            61.67         1.83          0.1600            0.0000           2.4667       PFind                   None            0.00    0.00    None
 52.1400         1.7528           0.0000          0.0000            51.67         1.54          0.1000            0.0000           3.1000       PFind                   None            0.00    0.00    None
 54.8800         1.6715           0.0000          0.0000           124.17         3.69          0.0400            0.0000           9.9333       PFind                   None            0.00    0.00    None
 55.8400         1.6451           0.0000          0.0000            65.83         1.96          0.1000            0.0000           9.2167       PFind                   None            0.00    0.00    None
 58.7600         1.5701           0.0000          0.0000            29.17         0.87          0.0800            0.0000           4.0833       PFind                   None            0.00    0.00    None
 59.9400         1.5420           0.0000          0.0000           328.33         9.75          0.0800            0.0000          26.2667       PFind                   None            0.00    0.00    None
 60.8400         1.5213           0.0000          0.0000            46.67         1.39          0.1400            0.0000           7.4667       PFind                   None            0.00    0.00    None
 61.8000         1.4999           0.0000          0.0000            49.17         1.46          0.0800            0.0000           3.9333       PFind                   None            0.00    0.00    None
 64.0400         1.4528           0.0000          0.0000            63.33         1.88          0.1000            0.0000           2.5333       PFind                   None            0.00    0.00    None
 64.2200         1.4491           0.0000          0.0000            39.17         1.16          0.0800            0.0000           2.3500       PFind                   None            0.00    0.00    None

File: G21_pf_FT.txt
Filename:
	C:\Program Files\Thermo Electron\WinXRD\Datafiles\FIEN2\FIEN\G21_FT.pk

File Created:
	February 25, 2021 - 10:45 AM

Specimen Id:
	G21 FT RT

Specimen Name:

Specimen Description:

Comment:
Scan Type: 2Theta Scan
Start Angle: 2 deg.
Stop Angle: 65 deg.
Num Points: 3151
Step Size: 0.02 deg.
Scan Rate: 1.000000
Scan Mode: Continuous
Wavelength: 1.540562
\Kalpha1: 1.540562	\Kalpha2: 1.544390	\Kbeta: 1.392218

Optics:
		Detector:
			 Type: Fixed Slits
		Tube:
			 Type: Fixed Slits

Datas:
Peaks:

Position        Dspace          ESD(P)          Corr.Fact       Intensity       Rel.Int.        FWHM(L)         ESD(L)          Area            Source                  Curve           Strain  CSize   CSize_Source
[deg]           [A]             [deg]           [deg]           [CPS]           [CPS]           [deg]           [deg]           [deg]           [--]                    [--]            [--]    [--]    [--]
  3.7800        23.3555           0.0000          0.0000            86.67         1.75          0.1000            0.0000           1.7333       PFind                   None            0.00    0.00    None
  4.3400        20.3430           0.0000          0.0000            84.17         1.70          0.0800            0.0000           1.6833       PFind                   None            0.00    0.00    None
  4.9400        17.8735           0.0000          0.0000            36.67         0.74          0.1000            0.0000           3.6667       PFind                   None            0.00    0.00    None
  5.8800        15.0181           0.0000          0.0000           387.50         7.83          0.1600            0.0000          54.2500       PFind                   None            0.00    0.00    None
  6.7000        13.1818           0.0000          0.0000            61.67         1.25          0.1000            0.0000           9.8667       PFind                   None            0.00    0.00    None
  7.3200        12.0666           0.0000          0.0000            46.67         0.94          0.1200            0.0000           0.9333       PFind                   None            0.00    0.00    None
  7.8000        11.3251           0.0000          0.0000            39.17         0.79          0.1400            0.0000           0.7833       PFind                   None            0.00    0.00    None
  9.0800         9.7313           0.0000          0.0000           212.50         4.29          0.1000            0.0000          21.2500       PFind                   None            0.00    0.00    None
  9.6800         9.1294           0.0000          0.0000            38.33         0.77          0.0600            0.0000           3.8333       PFind                   None            0.00    0.00    None
 10.1800         8.6821           0.0000          0.0000            40.83         0.83          0.1200            0.0000           0.0000       PFind                   None            0.00    0.00    None
 10.8200         8.1700           0.0000          0.0000            35.83         0.72          0.1000            0.0000           1.4333       PFind                   None            0.00    0.00    None
 11.8800         7.4433           0.0000          0.0000            63.33         1.28          0.0800            0.0000          10.1333       PFind                   None            0.00    0.00    None
 13.1400         6.7322           0.0000          0.0000            29.17         0.59          0.0200            0.0000           2.3333       PFind                   None            0.00    0.00    None
 13.5600         6.5246           0.0000          0.0000            46.67         0.94          0.1000            0.0000           3.7333       PFind                   None            0.00    0.00    None
 14.6200         6.0539           0.0000          0.0000            28.33         0.57          0.1000            0.0000           0.0000       PFind                   None            0.00    0.00    None
 16.1200         5.4938           0.0000          0.0000            25.83         0.52          0.0200            0.0000           0.5167       PFind                   None            0.00    0.00    None
 17.7600         4.9900           0.0000          0.0000           780.83        15.78          0.0000            0.0000          78.0833       PFind                   None            0.00    0.00    None
 19.1000         4.6428           0.0000          0.0000            33.33         0.67          0.0800            0.0000           2.6667       PFind                   None            0.00    0.00    None
 20.7800         4.2711           0.0000          0.0000          1001.67        20.24          0.0200            0.0000          80.1333       PFind                   None            0.00    0.00    None
 21.9800         4.0405           0.0000          0.0000           168.33         3.40          0.0400            0.0000          20.2000       PFind                   None            0.00    0.00    None
 23.7200         3.7479           0.0000          0.0000            36.67         0.74          0.1400            0.0000           1.4667       PFind                   None            0.00    0.00    None
 25.1000         3.5449           0.0000          0.0000           510.83        10.32          0.1400            0.0000          61.3000       PFind                   None            0.00    0.00    None
 26.5600         3.3533           0.0000          0.0000          4949.17       100.00          0.0200            0.0000         494.9167       PFind                   None            0.00    0.00    None
 27.4200         3.2500           0.0000          0.0000           377.50         7.63          0.0000            0.0000          37.7500       PFind                   None            0.00    0.00    None
 28.2400         3.1575           0.0000          0.0000           121.67         2.46          0.1000            0.0000          14.6000       PFind                   None            0.00    0.00    None
 29.0600         3.0702           0.0000          0.0000            28.33         0.57          0.1000            0.0000           0.5667       PFind                   None            0.00    0.00    None
 30.4200         2.9360           0.0000          0.0000           113.33         2.29          0.0800            0.0000          11.3333       PFind                   None            0.00    0.00    None
 31.5400         2.8342           0.0000          0.0000           100.00         2.02          0.0400            0.0000          12.0000       PFind                   None            0.00    0.00    None
 32.9800         2.7137           0.0000          0.0000            55.00         1.11          0.1400            0.0000           4.4000       PFind                   None            0.00    0.00    None
 34.8800         2.5701           0.0000          0.0000            96.67         1.95          0.0200            0.0000          15.4667       PFind                   None            0.00    0.00    None
 36.0600         2.4887           0.0000          0.0000            91.67         1.85          0.0200            0.0000           9.1667       PFind                   None            0.00    0.00    None
 37.0800         2.4225           0.0000          0.0000            45.00         0.91          0.1600            0.0000           1.8000       PFind                   None            0.00    0.00    None
 38.5600         2.3329           0.0000          0.0000            38.33         0.77          0.0800            0.0000           5.3667       PFind                   None            0.00    0.00    None
 39.6000         2.2740           0.0000          0.0000            44.17         0.89          0.1000            0.0000           2.6500       PFind                   None            0.00    0.00    None
 41.2400         2.1873           0.0000          0.0000            26.67         0.54          0.1000            0.0000           0.0000       PFind                   None            0.00    0.00    None
 42.3800         2.1310           0.0000          0.0000           420.83         8.50          0.1600            0.0000          16.8333       PFind                   None            0.00    0.00    None
 44.7800         2.0222           0.0000          0.0000            44.17         0.89          0.1200            0.0000           1.7667       PFind                   None            0.00    0.00    None
 45.9600         1.9730           0.0000          0.0000            80.00         1.62          0.1000            0.0000           9.6000       PFind                   None            0.00    0.00    None
 48.0600         1.8916           0.0000          0.0000            65.83         1.33          0.1200            0.0000           7.9000       PFind                   None            0.00    0.00    None
 49.4600         1.8413           0.0000          0.0000            27.50         0.56          0.1600            0.0000           0.5500       PFind                   None            0.00    0.00    None
 50.4800         1.8064           0.0000          0.0000            68.33         1.38          0.1200            0.0000          10.9333       PFind                   None            0.00    0.00    None
 52.3800         1.7453           0.0000          0.0000            30.83         0.62          0.0200            0.0000           1.2333       PFind                   None            0.00    0.00    None
 54.2600         1.6892           0.0000          0.0000            56.67         1.14          0.1000            0.0000           2.2667       PFind                   None            0.00    0.00    None
 54.9200         1.6704           0.0000          0.0000            75.83         1.53          0.1400            0.0000           7.5833       PFind                   None            0.00    0.00    None
 56.8800         1.6174           0.0000          0.0000            26.67         0.54          0.0200            0.0000           0.5333       PFind                   None            0.00    0.00    None
 59.3600         1.5556           0.0000          0.0000            26.67         0.54          0.0000            0.0000           0.5333       PFind                   None            0.00    0.00    None
 60.7800         1.5226           0.0000          0.0000            42.50         0.86          0.0400            0.0000           4.2500       PFind                   None            0.00    0.00    None
 61.4000         1.5087           0.0000          0.0000            72.50         1.46          0.0200            0.0000           8.7000       PFind                   None            0.00    0.00    None
 63.9600         1.4544           0.0000          0.0000            45.00         0.91          0.1200            0.0000           3.6000       PFind                   None            0.00    0.00    None