Folder: Non-Linear-XRD-Inversion/Generating XRD fingerprints/INPUT/Detrital data (part 6)

File: 4A_pf_FT.txt
Filename:
	C:\Program Files\Thermo Electron\WinXRD\Datafiles\FIEN2\FIEN\4A_FT.pk

File Created:
	February 25, 2021 - 10:41 AM

Specimen Id:
	4A FT

Specimen Name:

Specimen Description:

Comment:
Scan Type: 2Theta Scan
Start Angle: 1 deg.
Stop Angle: 65 deg.
Num Points: 3201
Step Size: 0.02 deg.
Scan Rate: 1.000000
Scan Mode: Continuous
Wavelength: 1.540562
\Kalpha1: 1.540562	\Kalpha2: 1.544390	\Kbeta: 1.392218

Optics:
		Detector:
			 Type: Fixed Slits
		Tube:
			 Type: Fixed Slits

Datas:
Peaks:

Position        Dspace          ESD(P)          Corr.Fact       Intensity       Rel.Int.        FWHM(L)         ESD(L)          Area            Source                  Curve           Strain  CSize   CSize_Source
[deg]           [A]             [deg]           [deg]           [CPS]           [CPS]           [deg]           [deg]           [deg]           [--]                    [--]            [--]    [--]    [--]
  2.7400        32.2176           0.0000          0.0000           123.33         8.00          0.0800            0.0000          12.3333       PFind                   None            0.00    0.00    None
  3.5200        25.0800           0.0000          0.0000            75.00         4.86          0.0800            0.0000           0.0000       PFind                   None            0.00    0.00    None
  4.0600        21.7454           0.0000          0.0000            72.50         4.70          0.0400            0.0000           7.2500       PFind                   None            0.00    0.00    None
  4.7400        18.6272           0.0000          0.0000            64.17         4.16          0.1400            0.0000           1.2833       PFind                   None            0.00    0.00    None
  5.4000        16.3519           0.0000          0.0000            70.83         4.59          0.1000            0.0000           0.0000       PFind                   None            0.00    0.00    None
  6.5200        13.5453           0.0000          0.0000            60.83         3.94          0.1200            0.0000           8.5167       PFind                   None            0.00    0.00    None
  7.1600        12.3359           0.0000          0.0000            50.00         3.24          0.1600            0.0000           4.0000       PFind                   None            0.00    0.00    None
  7.6600        11.5318           0.0000          0.0000            39.17         2.54          0.0600            0.0000           1.5667       PFind                   None            0.00    0.00    None
  9.2000         9.6046           0.0000          0.0000            51.67         3.35          0.0600            0.0000           7.2333       PFind                   None            0.00    0.00    None
 10.0400         8.8029           0.0000          0.0000            31.67         2.05          0.0800            0.0000           1.2667       PFind                   None            0.00    0.00    None
 11.3200         7.8102           0.0000          0.0000            45.00         2.92          0.1600            0.0000           0.0000       PFind                   None            0.00    0.00    None
 12.7600         6.9318           0.0000          0.0000            35.00         2.27          0.0400            0.0000           2.8000       PFind                   None            0.00    0.00    None
 14.9800         5.9092           0.0000          0.0000            34.17         2.22          0.0200            0.0000           0.6833       PFind                   None            0.00    0.00    None
 16.5800         5.3424           0.0000          0.0000            30.00         1.94          0.0800            0.0000           0.0000       PFind                   None            0.00    0.00    None
 18.7000         4.7412           0.0000          0.0000           210.00        13.61          0.1000            0.0000          29.4000       PFind                   None            0.00    0.00    None
 20.7800         4.2711           0.0000          0.0000           344.17        22.31          0.1000            0.0000          27.5333       PFind                   None            0.00    0.00    None
 22.9800         3.8669           0.0000          0.0000            60.00         3.89          0.1600            0.0000           3.6000       PFind                   None            0.00    0.00    None
 25.0800         3.5477           0.0000          0.0000           434.17        28.15          0.1400            0.0000          60.7833       PFind                   None            0.00    0.00    None
 27.4200         3.2500           0.0000          0.0000           220.00        14.26          0.0000            0.0000          26.4000       PFind                   None            0.00    0.00    None
 29.8000         2.9957           0.0000          0.0000           158.33        10.26          0.1400            0.0000          25.3333       PFind                   None            0.00    0.00    None
 31.1600         2.8679           0.0000          0.0000           155.00        10.05          0.0400            0.0000          24.8000       PFind                   None            0.00    0.00    None
 33.3000         2.6884           0.0000          0.0000            35.83         2.32          0.0800            0.0000           1.4333       PFind                   None            0.00    0.00    None
 34.9200         2.5673           0.0000          0.0000           115.83         7.51          0.0000            0.0000          18.5333       PFind                   None            0.00    0.00    None
 37.3400         2.4062           0.0000          0.0000            90.00         5.83          0.0000            0.0000          10.8000       PFind                   None            0.00    0.00    None
 38.5000         2.3364           0.0000          0.0000            32.50         2.11          0.1600            0.0000           3.2500       PFind                   None            0.00    0.00    None
 41.1800         2.1903           0.0000          0.0000            32.50         2.11          0.1200            0.0000           0.6500       PFind                   None            0.00    0.00    None
 44.2000         2.0474           0.0000          0.0000           105.83         6.86          0.0800            0.0000           6.3500       PFind                   None            0.00    0.00    None
 46.5000         1.9513           0.0000          0.0000            30.00         1.94          0.0600            0.0000           1.8000       PFind                   None            0.00    0.00    None
 48.4400         1.8776           0.0000          0.0000            46.67         3.03          0.0200            0.0000           2.8000       PFind                   None            0.00    0.00    None
 50.0600         1.8206           0.0000          0.0000           266.67        17.29          0.0200            0.0000          21.3333       PFind                   None            0.00    0.00    None
 51.1400         1.7847           0.0000          0.0000            65.00         4.21          0.1400            0.0000          10.4000       PFind                   None            0.00    0.00    None
 53.1200         1.7227           0.0000          0.0000            37.50         2.43          0.1600            0.0000           4.5000       PFind                   None            0.00    0.00    None
 55.5200         1.6538           0.0000          0.0000            30.83         2.00          0.1000            0.0000           1.2333       PFind                   None            0.00    0.00    None
 56.6400         1.6237           0.0000          0.0000            40.00         2.59          0.0800            0.0000           4.0000       PFind                   None            0.00    0.00    None
 59.0800         1.5623           0.0000          0.0000            40.83         2.65          0.0600            0.0000           4.9000       PFind                   None            0.00    0.00    None
 60.5200         1.5286           0.0000          0.0000            34.17         2.22          0.1200            0.0000           2.7333       PFind                   None            0.00    0.00    None
 61.4200         1.5083           0.0000          0.0000            49.17         3.19          0.0600            0.0000           6.8833       PFind                   None            0.00    0.00    None
 62.5800         1.4831           0.0000          0.0000            32.50         2.11          0.0800            0.0000           1.9500       PFind                   None            0.00    0.00    None
 64.5000         1.4435           0.0000          0.0000            59.17         3.84          0.1000            0.0000           4.7333       PFind                   None            0.00    0.00    None

File: 5_2_AUG_PF_FILTER.txt
Filename:
	C:\Program Files\Thermo Electron\WinXRD\Datafiles\FIEN\5_2_AG_FILTER.pk

File Created:
	April 15, 2019 - 03:07 PM

Specimen Id:
	5.2 AUGUST AG  FILTER

Specimen Name:

Specimen Description:

Comment:
Scan Type: 2Theta Scan
Start Angle: 1 deg.
Stop Angle: 65 deg.
Num Points: 3201
Step Size: 0.02 deg.
Scan Rate: 1.000000
Scan Mode: Continuous
Wavelength: 1.540562
\Kalpha1: 1.540562	\Kalpha2: 1.544390	\Kbeta: 1.392218

Optics:
		Detector:
			 Type: Fixed Slits
		Tube:
			 Type: Fixed Slits

Datas:
Peaks:

Position        Dspace          ESD(P)          Corr.Fact       Intensity       Rel.Int.        FWHM(L)         ESD(L)          Area            Source                  Curve           Strain  CSize   CSize_Source
[deg]           [A]             [deg]           [deg]           [CPS]           [CPS]           [deg]           [deg]           [deg]           [--]                    [--]            [--]    [--]    [--]
  2.9600        29.8235           0.0000          0.0000            60.83         2.90          0.1600            0.0000           4.8667       PFind                   None            0.00    0.00    None
  3.3200        26.5904           0.0000          0.0000            58.33         2.78          0.0800            0.0000           5.8333       PFind                   None            0.00    0.00    None
  3.8000        23.2326           0.0000          0.0000            48.33         2.31          0.1600            0.0000           2.9000       PFind                   None            0.00    0.00    None
  4.6800        18.8659           0.0000          0.0000            43.33         2.07          0.1600            0.0000           0.8667       PFind                   None            0.00    0.00    None
  5.5400        15.9390           0.0000          0.0000            53.33         2.54          0.0800            0.0000           1.0667       PFind                   None            0.00    0.00    None
  8.9000         9.9277           0.0000          0.0000           255.00        12.16          0.0000            0.0000          25.5000       PFind                   None            0.00    0.00    None
 10.6600         8.2922           0.0000          0.0000           111.67         5.33          0.1200            0.0000          11.1667       PFind                   None            0.00    0.00    None
 12.5400         7.0530           0.0000          0.0000           303.33        14.47          0.0200            0.0000          30.3333       PFind                   None            0.00    0.00    None
 17.8400         4.9678           0.0000          0.0000           146.67         7.00          0.1200            0.0000          14.6667       PFind                   None            0.00    0.00    None
 18.8400         4.7063           0.0000          0.0000           147.50         7.03          0.1000            0.0000          14.7500       PFind                   None            0.00    0.00    None
 19.8800         4.4624           0.0000          0.0000            40.00         1.91          0.0800            0.0000           4.8000       PFind                   None            0.00    0.00    None
 22.0800         4.0225           0.0000          0.0000           235.83        11.25          0.1000            0.0000          23.5833       PFind                   None            0.00    0.00    None
 23.1000         3.8471           0.0000          0.0000            66.67         3.18          0.0200            0.0000           5.3333       PFind                   None            0.00    0.00    None
 23.8200         3.7324           0.0000          0.0000            38.33         1.83          0.0200            0.0000           0.7667       PFind                   None            0.00    0.00    None
 24.6200         3.6129           0.0000          0.0000           322.50        15.38          0.0000            0.0000          38.7000       PFind                   None            0.00    0.00    None
 25.5200         3.4875           0.0000          0.0000           145.00         6.92          0.1000            0.0000          20.3000       PFind                   None            0.00    0.00    None
 26.9200         3.3092           0.0000          0.0000           512.50        24.44          0.1200            0.0000          61.5000       PFind                   None            0.00    0.00    None
 27.9400         3.1907           0.0000          0.0000           425.83        20.31          0.1000            0.0000          51.1000       PFind                   None            0.00    0.00    None
 28.6600         3.1122           0.0000          0.0000           125.00         5.96          0.1000            0.0000          20.0000       PFind                   None            0.00    0.00    None
 30.2800         2.9493           0.0000          0.0000            66.67         3.18          0.1200            0.0000           8.0000       PFind                   None            0.00    0.00    None
 30.5200         2.9266           0.0000          0.0000            64.17         3.06          0.1200            0.0000           7.7000       PFind                   None            0.00    0.00    None
 31.2600         2.8590           0.0000          0.0000            89.17         4.25          0.1200            0.0000          12.4833       PFind                   None            0.00    0.00    None
 31.9000         2.8031           0.0000          0.0000            46.67         2.23          0.1600            0.0000           0.9333       PFind                   None            0.00    0.00    None
 32.2800         2.7709           0.0000          0.0000            46.67         2.23          0.1200            0.0000           5.6000       PFind                   None            0.00    0.00    None
 34.6200         2.5888           0.0000          0.0000            66.67         3.18          0.1400            0.0000           4.0000       PFind                   None            0.00    0.00    None
 35.5600         2.5225           0.0000          0.0000           109.17         5.21          0.1400            0.0000          15.2833       PFind                   None            0.00    0.00    None
 36.5600         2.4558           0.0000          0.0000           335.83        16.02          0.0800            0.0000          33.5833       PFind                   None            0.00    0.00    None
 37.7200         2.3829           0.0000          0.0000           128.33         6.12          0.0000            0.0000           7.7000       PFind                   None            0.00    0.00    None
 38.9000         2.3133           0.0000          0.0000            51.67         2.46          0.1200            0.0000           4.1333       PFind                   None            0.00    0.00    None
 40.3000         2.2361           0.0000          0.0000           115.83         5.52          0.1200            0.0000          11.5833       PFind                   None            0.00    0.00    None
 41.9800         2.1504           0.0000          0.0000            68.33         3.26          0.1000            0.0000           5.4667       PFind                   None            0.00    0.00    None
 42.7000         2.1158           0.0000          0.0000            47.50         2.27          0.0600            0.0000           2.8500       PFind                   None            0.00    0.00    None
 44.9800         2.0137           0.0000          0.0000            48.33         2.31          0.1000            0.0000           3.8667       PFind                   None            0.00    0.00    None
 45.6200         1.9869           0.0000          0.0000           229.17        10.93          0.1200            0.0000          36.6667       PFind                   None            0.00    0.00    None
 48.3200         1.8820           0.0000          0.0000            68.33         3.26          0.1200            0.0000           4.1000       PFind                   None            0.00    0.00    None
 50.1600         1.8172           0.0000          0.0000           297.50        14.19          0.1400            0.0000          23.8000       PFind                   None            0.00    0.00    None
 50.7400         1.7978           0.0000          0.0000            53.33         2.54          0.1000            0.0000           6.4000       PFind                   None            0.00    0.00    None
 52.1200         1.7534           0.0000          0.0000            53.33         2.54          0.1000            0.0000           2.1333       PFind                   None            0.00    0.00    None
 52.5200         1.7410           0.0000          0.0000            61.67         2.94          0.0800            0.0000           3.7000       PFind                   None            0.00    0.00    None
 55.0600         1.6665           0.0000          0.0000            75.83         3.62          0.0800            0.0000           7.5833       PFind                   None            0.00    0.00    None
 55.8000         1.6461           0.0000          0.0000            46.67         2.23          0.1400            0.0000           5.6000       PFind                   None            0.00    0.00    None
 59.9800         1.5410           0.0000          0.0000           159.17         7.59          0.0600            0.0000          12.7333       PFind                   None            0.00    0.00    None
 60.7800         1.5226           0.0000          0.0000            44.17         2.11          0.1000            0.0000           3.5333       PFind                   None            0.00    0.00    None
 61.8200         1.4995           0.0000          0.0000            49.17         2.34          0.0800            0.0000           0.9833       PFind                   None            0.00    0.00    None
 64.1200         1.4512           0.0000          0.0000            39.17         1.87          0.0800            0.0000           3.9167       PFind                   None            0.00    0.00    None

File: 7_2_AUG.txt
Position	Dspace	ESD(P)	Corr.Fact	Intensity	Rel.Int.	FWHM(L)	ESD(L)	Area
[deg]	[A]	[deg]	[deg]	[CPS]	[CPS]	[deg]	[deg]	[deg]
6.3800	13.8422	0.0000	0.0000	126.67	6.89	0.0800	0.0000	17.7333
9.0200	9.7959	0.0000	0.0000	636.67	34.62	0.1400	0.0000	50.9333
12.3400	7.1668	0.0000	0.0000	280.00	15.22	0.1200	0.0000	33.6000
12.6400	6.9974	0.0000	0.0000	374.17	20.34	0.1000	0.0000	52.3833
18.0000	4.9240	0.0000	0.0000	235.00	12.78	0.1400	0.0000	23.5000
18.9600	4.6768	0.0000	0.0000	156.67	8.52	0.1000	0.0000	21.9333
21.0600	4.2149	0.0000	0.0000	433.33	23.56	0.1400	0.0000	43.3333
22.2000	4.0010	0.0000	0.0000	125.00	6.80	0.1200	0.0000	12.5000
24.7600	3.5928	0.0000	0.0000	249.17	13.55	0.1000	0.0000	39.8667
25.3200	3.5146	0.0000	0.0000	312.50	16.99	0.1600	0.0000	37.5000
25.5600	3.4822	0.0000	0.0000	96.67	5.26	0.0600	0.0000	9.6667
26.8200	3.3214	0.0000	0.0000	1839.17	100.00	0.1400	0.0000	183.9167
27.0600	3.2924	0.0000	0.0000	795.83	43.27	0.1200	0.0000	111.4167
27.5800	3.2315	0.0000	0.0000	108.33	5.89	0.0200	0.0000	17.3333
27.7000	3.2178	0.0000	0.0000	175.00	9.52	0.0600	0.0000	24.5000
28.0400	3.1796	0.0000	0.0000	495.00	26.91	0.1000	0.0000	59.4000
28.8000	3.0974	0.0000	0.0000	95.00	5.17	0.1600	0.0000	5.7000
30.6200	2.9173	0.0000	0.0000	87.50	4.76	0.0200	0.0000	8.7500
30.9800	2.8842	0.0000	0.0000	154.17	8.38	0.0400	0.0000	6.1667
35.6400	2.5170	0.0000	0.0000	110.00	5.98	0.0400	0.0000	15.4000
36.7200	2.4454	0.0000	0.0000	218.33	11.87	0.1200	0.0000	17.4667
38.2600	2.3505	0.0000	0.0000	955.83	51.97	0.0800	0.0000	114.7000
39.0000	2.3076	0.0000	0.0000	87.50	4.76	0.0800	0.0000	3.5000
39.6400	2.2718	0.0000	0.0000	99.17	5.39	0.0600	0.0000	1.9833
40.4600	2.2276	0.0000	0.0000	218.33	11.87	0.1400	0.0000	13.1000
42.8200	2.1101	0.0000	0.0000	129.17	7.02	0.1400	0.0000	7.7500
44.4800	2.0352	0.0000	0.0000	412.50	22.43	0.1000	0.0000	66.0000
45.7600	1.9812	0.0000	0.0000	249.17	13.55	0.1000	0.0000	39.8667
45.9600	1.9730	0.0000	0.0000	234.17	12.73	0.1600	0.0000	18.7333
48.7400	1.8668	0.0000	0.0000	95.00	5.17	0.1600	0.0000	1.9000