Folder: Non-Linear-XRD-Inversion/Generating XRD fingerprints/INPUT/Detrital data (part 16)

File: 18_1_SEPT_PF_FILTER.txt
Filename:
	H:\18_1_SEPT_FILTER.pk

File Created:
	April 16, 2019 - 04:36 PM

Specimen Id:
	18.1 SEPT FILTER

Specimen Name:

Specimen Description:

Comment:
Scan Type: 2Theta Scan
Start Angle: 2 deg.
Stop Angle: 65 deg.
Num Points: 3151
Step Size: 0.02 deg.
Scan Rate: 1.000000
Scan Mode: Continuous
Wavelength: 1.540562
\Kalpha1: 1.540562	\Kalpha2: 1.544390	\Kbeta: 1.392218

Optics:
		Detector:
			 Type: Fixed Slits
		Tube:
			 Type: Fixed Slits

Datas:
Peaks:

Position        Dspace          ESD(P)          Corr.Fact       Intensity       Rel.Int.        FWHM(L)         ESD(L)          Area            Source                  Curve           Strain  CSize   CSize_Source
[deg]           [A]             [deg]           [deg]           [CPS]           [CPS]           [deg]           [deg]           [deg]           [--]                    [--]            [--]    [--]    [--]
  3.7600        23.4797           0.0000          0.0000            50.83         2.54          0.1400            0.0000           5.0833       PFind                   None            0.00    0.00    None
  4.0600        21.7454           0.0000          0.0000            37.50         1.87          0.0800            0.0000           3.7500       PFind                   None            0.00    0.00    None
  4.4400        19.8851           0.0000          0.0000            38.33         1.91          0.1600            0.0000           3.0667       PFind                   None            0.00    0.00    None
  4.7800        18.4714           0.0000          0.0000            44.17         2.20          0.1600            0.0000           0.8833       PFind                   None            0.00    0.00    None
  5.3200        16.5976           0.0000          0.0000            40.00         2.00          0.0200            0.0000           0.8000       PFind                   None            0.00    0.00    None
  6.3400        13.9295           0.0000          0.0000            65.83         3.29          0.1600            0.0000           7.9000       PFind                   None            0.00    0.00    None
 10.7000         8.2613           0.0000          0.0000            41.67         2.08          0.0600            0.0000           5.0000       PFind                   None            0.00    0.00    None
 12.5800         7.0306           0.0000          0.0000           173.33         8.65          0.1200            0.0000          27.7333       PFind                   None            0.00    0.00    None
 17.9600         4.9349           0.0000          0.0000           118.33         5.91          0.0800            0.0000          16.5667       PFind                   None            0.00    0.00    None
 20.0000         4.4359           0.0000          0.0000            50.00         2.50          0.0800            0.0000           6.0000       PFind                   None            0.00    0.00    None
 22.1800         4.0046           0.0000          0.0000           531.67        26.54          0.0200            0.0000          53.1667       PFind                   None            0.00    0.00    None
 23.6400         3.7604           0.0000          0.0000           149.17         7.45          0.1000            0.0000          11.9333       PFind                   None            0.00    0.00    None
 24.7200         3.5985           0.0000          0.0000           222.50        11.11          0.0000            0.0000          35.6000       PFind                   None            0.00    0.00    None
 25.6200         3.4741           0.0000          0.0000            95.83         4.78          0.1200            0.0000          13.4167       PFind                   None            0.00    0.00    None
 27.6600         3.2224           0.0000          0.0000           135.00         6.74          0.1200            0.0000          21.6000       PFind                   None            0.00    0.00    None
 28.7400         3.1037           0.0000          0.0000           119.17         5.95          0.1200            0.0000          16.6833       PFind                   None            0.00    0.00    None
 30.3000         2.9474           0.0000          0.0000            47.50         2.37          0.0800            0.0000           4.7500       PFind                   None            0.00    0.00    None
 30.9400         2.8878           0.0000          0.0000           112.50         5.62          0.0800            0.0000          13.5000       PFind                   None            0.00    0.00    None
 31.7200         2.8186           0.0000          0.0000            49.17         2.45          0.0000            0.0000           5.9000       PFind                   None            0.00    0.00    None
 32.3400         2.7659           0.0000          0.0000            46.67         2.33          0.0600            0.0000           2.8000       PFind                   None            0.00    0.00    None
 35.1200         2.5531           0.0000          0.0000            60.00         3.00          0.0800            0.0000           7.2000       PFind                   None            0.00    0.00    None
 36.5400         2.4571           0.0000          0.0000           535.83        26.75          0.1000            0.0000          21.4333       PFind                   None            0.00    0.00    None
 37.8600         2.3744           0.0000          0.0000            47.50         2.37          0.1200            0.0000           0.0000       PFind                   None            0.00    0.00    None
 39.5600         2.2762           0.0000          0.0000           126.67         6.32          0.1400            0.0000          15.2000       PFind                   None            0.00    0.00    None
 42.0200         2.1484           0.0000          0.0000            38.33         1.91          0.1000            0.0000           2.3000       PFind                   None            0.00    0.00    None
 42.5400         2.1234           0.0000          0.0000            92.50         4.62          0.1600            0.0000          12.9500       PFind                   None            0.00    0.00    None
 44.3800         2.0395           0.0000          0.0000           283.33        14.14          0.0400            0.0000          39.6667       PFind                   None            0.00    0.00    None
 48.2200         1.8857           0.0000          0.0000            37.50         1.87          0.1000            0.0000           2.2500       PFind                   None            0.00    0.00    None
 50.7200         1.7984           0.0000          0.0000            96.67         4.83          0.1400            0.0000          13.5333       PFind                   None            0.00    0.00    None
 52.2200         1.7503           0.0000          0.0000            44.17         2.20          0.1200            0.0000           0.8833       PFind                   None            0.00    0.00    None
 55.3800         1.6576           0.0000          0.0000            69.17         3.45          0.1400            0.0000          11.0667       PFind                   None            0.00    0.00    None
 56.1200         1.6375           0.0000          0.0000            37.50         1.87          0.1400            0.0000           5.2500       PFind                   None            0.00    0.00    None
 60.0200         1.5401           0.0000          0.0000           126.67         6.32          0.1200            0.0000          12.6667       PFind                   None            0.00    0.00    None
 64.4800         1.4439           0.0000          0.0000           270.83        13.52          0.0800            0.0000          16.2500       PFind                   None            0.00    0.00    None
 64.6600         1.4403           0.0000          0.0000           144.17         7.20          0.1400            0.0000          11.5333       PFind                   None            0.00    0.00    None

File: 18_2_AUG_PF_FILTER.txt
Filename:
	H:\18_2_AUG_FILTER.pk

File Created:
	April 16, 2019 - 04:36 PM

Specimen Id:
	18.2 AUG FILTER

Specimen Name:

Specimen Description:

Comment:
Scan Type: 2Theta Scan
Start Angle: 2 deg.
Stop Angle: 65 deg.
Num Points: 3151
Step Size: 0.02 deg.
Scan Rate: 1.000000
Scan Mode: Continuous
Wavelength: 1.540562
\Kalpha1: 1.540562	\Kalpha2: 1.544390	\Kbeta: 1.392218

Optics:
		Detector:
			 Type: Fixed Slits
		Tube:
			 Type: Fixed Slits

Datas:
Peaks:

Position        Dspace          ESD(P)          Corr.Fact       Intensity       Rel.Int.        FWHM(L)         ESD(L)          Area            Source                  Curve           Strain  CSize   CSize_Source
[deg]           [A]             [deg]           [deg]           [CPS]           [CPS]           [deg]           [deg]           [deg]           [--]                    [--]            [--]    [--]    [--]
  3.8800        22.7538           0.0000          0.0000            42.50         3.58          0.1000            0.0000           5.9500       PFind                   None            0.00    0.00    None
  6.4800        13.6288           0.0000          0.0000            51.67         4.35          0.0400            0.0000           6.2000       PFind                   None            0.00    0.00    None
 12.5000         7.0754           0.0000          0.0000           215.83        18.19          0.0800            0.0000          17.2667       PFind                   None            0.00    0.00    None
 18.1200         4.8916           0.0000          0.0000            80.00         6.74          0.1000            0.0000           8.0000       PFind                   None            0.00    0.00    None
 20.1800         4.3967           0.0000          0.0000            60.00         5.06          0.1400            0.0000           8.4000       PFind                   None            0.00    0.00    None
 22.3800         3.9692           0.0000          0.0000            97.50         8.22          0.0200            0.0000           9.7500       PFind                   None            0.00    0.00    None
 23.3600         3.8049           0.0000          0.0000            50.83         4.28          0.1000            0.0000           4.0667       PFind                   None            0.00    0.00    None
 24.6000         3.6158           0.0000          0.0000            75.00         6.32          0.1200            0.0000           7.5000       PFind                   None            0.00    0.00    None
 25.4600         3.4956           0.0000          0.0000           121.67        10.25          0.1400            0.0000          19.4667       PFind                   None            0.00    0.00    None
 26.9600         3.3044           0.0000          0.0000          1186.67       100.00          0.1400            0.0000         142.4000       PFind                   None            0.00    0.00    None
 28.0000         3.1840           0.0000          0.0000           293.33        24.72          0.1200            0.0000          23.4667       PFind                   None            0.00    0.00    None
 28.6200         3.1164           0.0000          0.0000           135.00        11.38          0.1200            0.0000           5.4000       PFind                   None            0.00    0.00    None
 30.1800         2.9588           0.0000          0.0000           206.67        17.42          0.1000            0.0000          20.6667       PFind                   None            0.00    0.00    None
 30.8200         2.8988           0.0000          0.0000            63.33         5.34          0.1600            0.0000           8.8667       PFind                   None            0.00    0.00    None
 31.5600         2.8325           0.0000          0.0000            85.00         7.16          0.1600            0.0000          11.9000       PFind                   None            0.00    0.00    None
 32.6000         2.7445           0.0000          0.0000            41.67         3.51          0.1600            0.0000           4.1667       PFind                   None            0.00    0.00    None
 35.2800         2.5419           0.0000          0.0000            84.17         7.09          0.0400            0.0000          10.1000       PFind                   None            0.00    0.00    None
 36.8600         2.4365           0.0000          0.0000           139.17        11.73          0.1200            0.0000          19.4833       PFind                   None            0.00    0.00    None
 38.0400         2.3636           0.0000          0.0000            66.67         5.62          0.1000            0.0000           8.0000       PFind                   None            0.00    0.00    None
 39.7600         2.2652           0.0000          0.0000           105.00         8.85          0.1200            0.0000          12.6000       PFind                   None            0.00    0.00    None
 42.2800         2.1358           0.0000          0.0000            37.50         3.16          0.1000            0.0000           4.5000       PFind                   None            0.00    0.00    None
 45.3600         1.9977           0.0000          0.0000            46.67         3.93          0.1200            0.0000           1.8667       PFind                   None            0.00    0.00    None
 46.0600         1.9690           0.0000          0.0000            63.33         5.34          0.1200            0.0000           7.6000       PFind                   None            0.00    0.00    None
 50.4200         1.8084           0.0000          0.0000           194.17        16.36          0.1000            0.0000          23.3000       PFind                   None            0.00    0.00    None
 55.1600         1.6637           0.0000          0.0000            80.00         6.74          0.1000            0.0000           8.0000       PFind                   None            0.00    0.00    None
 56.1400         1.6370           0.0000          0.0000            41.67         3.51          0.1000            0.0000           6.6667       PFind                   None            0.00    0.00    None
 60.4000         1.5313           0.0000          0.0000            80.00         6.74          0.1600            0.0000           9.6000       PFind                   None            0.00    0.00    None
 61.1200         1.5150           0.0000          0.0000            50.83         4.28          0.1200            0.0000           5.0833       PFind                   None            0.00    0.00    None
 64.2600         1.4483           0.0000          0.0000            37.50         3.16          0.1000            0.0000           3.0000       PFind                   None            0.00    0.00    None

File: 19_1_AUG_PF_FILTER.txt
Filename:
	C:\Program Files\Thermo Electron\WinXRD\Datafiles\FIEN\19_1_AG_FILTER.pk

File Created:
	April 15, 2019 - 03:26 PM

Specimen Id:
	19.1 AUGUST FT

Specimen Name:

Specimen Description:

Comment:
Scan Type: 2Theta Scan
Start Angle: 1 deg.
Stop Angle: 65 deg.
Num Points: 3201
Step Size: 0.02 deg.
Scan Rate: 1.000000
Scan Mode: Continuous
Wavelength: 1.540562
\Kalpha1: 1.540562	\Kalpha2: 1.544390	\Kbeta: 1.392218

Optics:
		Detector:
			 Type: Fixed Slits
		Tube:
			 Type: Fixed Slits

Datas:
Peaks:

Position        Dspace          ESD(P)          Corr.Fact       Intensity       Rel.Int.        FWHM(L)         ESD(L)          Area            Source                  Curve           Strain  CSize   CSize_Source
[deg]           [A]             [deg]           [deg]           [CPS]           [CPS]           [deg]           [deg]           [deg]           [--]                    [--]            [--]    [--]    [--]
  2.8000        31.5273           0.0000          0.0000            46.67         4.44          0.1200            0.0000           5.6000       PFind                   None            0.00    0.00    None
  3.0600        28.8491           0.0000          0.0000            39.17         3.72          0.1000            0.0000           3.1333       PFind                   None            0.00    0.00    None
  3.4400        25.6631           0.0000          0.0000            70.00         6.66          0.1200            0.0000           2.8000       PFind                   None            0.00    0.00    None
  3.8000        23.2326           0.0000          0.0000            41.67         3.96          0.0800            0.0000           0.8333       PFind                   None            0.00    0.00    None
  4.0400        21.8530           0.0000          0.0000            44.17         4.20          0.0200            0.0000           5.3000       PFind                   None            0.00    0.00    None
  4.3400        20.3430           0.0000          0.0000            57.50         5.47          0.1600            0.0000           3.4500       PFind                   None            0.00    0.00    None
  5.0400        17.5191           0.0000          0.0000            35.83         3.41          0.1000            0.0000           2.1500       PFind                   None            0.00    0.00    None
  6.1000        14.4770           0.0000          0.0000            60.00         5.71          0.0200            0.0000           7.2000       PFind                   None            0.00    0.00    None
  6.4600        13.6710           0.0000          0.0000            49.17         4.68          0.0200            0.0000           0.0000       PFind                   None            0.00    0.00    None
  8.8200        10.0176           0.0000          0.0000           188.33        17.91          0.0600            0.0000          30.1333       PFind                   None            0.00    0.00    None
  9.5200         9.2825           0.0000          0.0000            50.00         4.75          0.1600            0.0000           1.0000       PFind                   None            0.00    0.00    None
 10.4400         8.4665           0.0000          0.0000            35.00         3.33          0.1200            0.0000           4.2000       PFind                   None            0.00    0.00    None
 12.4400         7.1094           0.0000          0.0000           231.67        22.03          0.0200            0.0000          27.8000       PFind                   None            0.00    0.00    None
 17.7600         4.9900           0.0000          0.0000           124.17        11.81          0.0000            0.0000          14.9000       PFind                   None            0.00    0.00    None
 19.8200         4.4757           0.0000          0.0000            37.50         3.57          0.0600            0.0000           2.2500       PFind                   None            0.00    0.00    None
 22.0600         4.0261           0.0000          0.0000            91.67         8.72          0.0600            0.0000          14.6667       PFind                   None            0.00    0.00    None
 22.9200         3.8769           0.0000          0.0000            36.67         3.49          0.0800            0.0000           5.8667       PFind                   None            0.00    0.00    None
 23.6200         3.7636           0.0000          0.0000            53.33         5.07          0.1600            0.0000           6.4000       PFind                   None            0.00    0.00    None
 24.5800         3.6187           0.0000          0.0000           233.33        22.19          0.0200            0.0000          37.3333       PFind                   None            0.00    0.00    None
 25.5600         3.4822           0.0000          0.0000            64.17         6.10          0.0600            0.0000          10.2667       PFind                   None            0.00    0.00    None
 26.6600         3.3409           0.0000          0.0000          1051.67       100.00          0.1200            0.0000         168.2667       PFind                   None            0.00    0.00    None
 27.6400         3.2247           0.0000          0.0000           230.83        21.95          0.0200            0.0000           9.2333       PFind                   None            0.00    0.00    None
 28.6800         3.1100           0.0000          0.0000            95.83         9.11          0.1600            0.0000          15.3333       PFind                   None            0.00    0.00    None
 30.4200         2.9360           0.0000          0.0000            50.83         4.83          0.1600            0.0000           8.1333       PFind                   None            0.00    0.00    None
 30.8400         2.8970           0.0000          0.0000            82.50         7.84          0.1600            0.0000           1.6500       PFind                   None            0.00    0.00    None
 31.3600         2.8501           0.0000          0.0000            69.17         6.58          0.1600            0.0000           8.3000       PFind                   None            0.00    0.00    None
 32.1400         2.7827           0.0000          0.0000            47.50         4.52          0.1200            0.0000           7.6000       PFind                   None            0.00    0.00    None
 33.1000         2.7041           0.0000          0.0000            46.67         4.44          0.1600            0.0000           5.6000       PFind                   None            0.00    0.00    None
 34.5800         2.5917           0.0000          0.0000            40.83         3.88          0.1400            0.0000           4.9000       PFind                   None            0.00    0.00    None
 35.1000         2.5545           0.0000          0.0000            68.33         6.50          0.0600            0.0000           9.5667       PFind                   None            0.00    0.00    None
 35.6600         2.5157           0.0000          0.0000            93.33         8.87          0.0800            0.0000           9.3333       PFind                   None            0.00    0.00    None
 36.6000         2.4532           0.0000          0.0000           120.83        11.49          0.1200            0.0000          19.3333       PFind                   None            0.00    0.00    None
 37.7600         2.3804           0.0000          0.0000            37.50         3.57          0.0400            0.0000           4.5000       PFind                   None            0.00    0.00    None
 40.0200         2.2511           0.0000          0.0000            65.83         6.26          0.1400            0.0000           5.2667       PFind                   None            0.00    0.00    None
 41.8000         2.1592           0.0000          0.0000            36.67         3.49          0.1600            0.0000           3.6667       PFind                   None            0.00    0.00    None
 43.0000         2.1017           0.0000          0.0000            58.33         5.55          0.1600            0.0000           2.3333       PFind                   None            0.00    0.00    None
 45.1400         2.0069           0.0000          0.0000            40.00         3.80          0.0800            0.0000           2.4000       PFind                   None            0.00    0.00    None
 49.5800         1.8371           0.0000          0.0000            65.00         6.18          0.1200            0.0000           2.6000       PFind                   None            0.00    0.00    None
 50.2400         1.8145           0.0000          0.0000           449.17        42.71          0.0400            0.0000          26.9500       PFind                   None            0.00    0.00    None
 54.9600         1.6693           0.0000          0.0000            44.17         4.20          0.1200            0.0000           5.3000       PFind                   None            0.00    0.00    None
 55.3800         1.6576           0.0000          0.0000            41.67         3.96          0.1600            0.0000           4.1667       PFind                   None            0.00    0.00    None
 56.0200         1.6402           0.0000          0.0000            51.67         4.91          0.0800            0.0000           2.0667       PFind                   None            0.00    0.00    None
 61.0400         1.5168           0.0000          0.0000            36.67         3.49          0.0600            0.0000           4.4000       PFind                   None            0.00    0.00    None
 61.7400         1.5013           0.0000          0.0000            41.67         3.96          0.1000            0.0000           0.8333       PFind                   None            0.00    0.00    None