Folder: Non-Linear-XRD-Inversion/Generating XRD fingerprints/INPUT/Detrital data (part 19)

File: 23_1_AUG_PF_RT.txt
Filename:
	C:\Program Files\Thermo Electron\WinXRD\Datafiles\FIEN\23_1_AUG_P_RT.pk

File Created:
	April 15, 2019 - 03:38 PM

Specimen Id:
	23.2 AUG P FT

Specimen Name:

Specimen Description:

Comment:
Scan Type: 2Theta Scan
Start Angle: 1 deg.
Stop Angle: 65 deg.
Num Points: 3201
Step Size: 0.02 deg.
Scan Rate: 1.000000
Scan Mode: Continuous
Wavelength: 1.540562
\Kalpha1: 1.540562	\Kalpha2: 1.544390	\Kbeta: 1.392218

Optics:
		Detector:
			 Type: Fixed Slits
		Tube:
			 Type: Fixed Slits

Datas:
Peaks:

Position        Dspace          ESD(P)          Corr.Fact       Intensity       Rel.Int.        FWHM(L)         ESD(L)          Area            Source                  Curve           Strain  CSize   CSize_Source
[deg]           [A]             [deg]           [deg]           [CPS]           [CPS]           [deg]           [deg]           [deg]           [--]                    [--]            [--]    [--]    [--]
  2.9600        29.8235           0.0000          0.0000            68.33         4.30          0.1000            0.0000           4.1000       PFind                   None            0.00    0.00    None
  3.2200        27.4159           0.0000          0.0000            51.67         3.25          0.1400            0.0000           1.0333       PFind                   None            0.00    0.00    None
  3.4400        25.6631           0.0000          0.0000            56.67         3.56          0.1400            0.0000           7.9333       PFind                   None            0.00    0.00    None
  4.0200        21.9616           0.0000          0.0000            54.17         3.41          0.1000            0.0000           3.2500       PFind                   None            0.00    0.00    None
  4.4200        19.9750           0.0000          0.0000            47.50         2.99          0.1600            0.0000           0.0000       PFind                   None            0.00    0.00    None
  4.8400        18.2426           0.0000          0.0000            46.67         2.94          0.1600            0.0000           2.8000       PFind                   None            0.00    0.00    None
  5.5000        16.0548           0.0000          0.0000            35.00         2.20          0.1000            0.0000           0.0000       PFind                   None            0.00    0.00    None
  5.8000        15.2251           0.0000          0.0000            33.33         2.10          0.0400            0.0000           2.0000       PFind                   None            0.00    0.00    None
  6.5800        13.4219           0.0000          0.0000            41.67         2.62          0.1000            0.0000           1.6667       PFind                   None            0.00    0.00    None
  6.8200        12.9501           0.0000          0.0000            42.50         2.67          0.1000            0.0000           0.0000       PFind                   None            0.00    0.00    None
  7.3000        12.0996           0.0000          0.0000            36.67         2.31          0.0400            0.0000           0.0000       PFind                   None            0.00    0.00    None
  8.8200        10.0176           0.0000          0.0000           424.17        26.68          0.1000            0.0000          25.4500       PFind                   None            0.00    0.00    None
  9.2800         9.5220           0.0000          0.0000            35.00         2.20          0.1600            0.0000           2.1000       PFind                   None            0.00    0.00    None
 12.1400         7.2844           0.0000          0.0000           202.50        12.74          0.0600            0.0000          16.2000       PFind                   None            0.00    0.00    None
 13.8400         6.3933           0.0000          0.0000            46.67         2.94          0.0600            0.0000           2.8000       PFind                   None            0.00    0.00    None
 17.7600         4.9900           0.0000          0.0000           163.33        10.27          0.0600            0.0000          16.3333       PFind                   None            0.00    0.00    None
 18.7600         4.7262           0.0000          0.0000           102.50         6.45          0.0400            0.0000           6.1500       PFind                   None            0.00    0.00    None
 20.8000         4.2670           0.0000          0.0000           245.83        15.46          0.0000            0.0000          19.6667       PFind                   None            0.00    0.00    None
 22.4200         3.9622           0.0000          0.0000            50.00         3.14          0.0800            0.0000           2.0000       PFind                   None            0.00    0.00    None
 23.4800         3.7857           0.0000          0.0000            75.83         4.77          0.0600            0.0000           7.5833       PFind                   None            0.00    0.00    None
 24.5200         3.6274           0.0000          0.0000           150.00         9.43          0.0400            0.0000          15.0000       PFind                   None            0.00    0.00    None
 24.8800         3.5758           0.0000          0.0000            49.17         3.09          0.1000            0.0000           7.8667       PFind                   None            0.00    0.00    None
 25.3200         3.5146           0.0000          0.0000           838.33        52.73          0.0200            0.0000          33.5333       PFind                   None            0.00    0.00    None
 26.8000         3.3238           0.0000          0.0000           867.50        54.56          0.1200            0.0000          86.7500       PFind                   None            0.00    0.00    None
 27.8400         3.2019           0.0000          0.0000           284.17        17.87          0.0600            0.0000          39.7833       PFind                   None            0.00    0.00    None
 28.5000         3.1293           0.0000          0.0000            67.50         4.25          0.1200            0.0000           6.7500       PFind                   None            0.00    0.00    None
 29.8000         2.9957           0.0000          0.0000           103.33         6.50          0.0000            0.0000          10.3333       PFind                   None            0.00    0.00    None
 31.1800         2.8661           0.0000          0.0000            73.33         4.61          0.0600            0.0000          10.2667       PFind                   None            0.00    0.00    None
 31.9800         2.7962           0.0000          0.0000            39.17         2.46          0.1000            0.0000           3.1333       PFind                   None            0.00    0.00    None
 33.8800         2.6437           0.0000          0.0000            35.83         2.25          0.0600            0.0000           2.8667       PFind                   None            0.00    0.00    None
 34.9200         2.5673           0.0000          0.0000            76.67         4.82          0.0800            0.0000          12.2667       PFind                   None            0.00    0.00    None
 35.4400         2.5308           0.0000          0.0000            75.83         4.77          0.0800            0.0000          12.1333       PFind                   None            0.00    0.00    None
 36.4800         2.4610           0.0000          0.0000           129.17         8.12          0.0000            0.0000          15.5000       PFind                   None            0.00    0.00    None
 39.4200         2.2839           0.0000          0.0000            99.17         6.24          0.0600            0.0000           5.9500       PFind                   None            0.00    0.00    None
 41.6400         2.1672           0.0000          0.0000            40.83         2.57          0.0600            0.0000           6.5333       PFind                   None            0.00    0.00    None
 43.5000         2.0787           0.0000          0.0000            40.00         2.52          0.0800            0.0000           1.6000       PFind                   None            0.00    0.00    None
 43.8400         2.0634           0.0000          0.0000            41.67         2.62          0.1600            0.0000           0.8333       PFind                   None            0.00    0.00    None
 44.9000         2.0171           0.0000          0.0000            65.00         4.09          0.1600            0.0000           6.5000       PFind                   None            0.00    0.00    None
 45.5200         1.9910           0.0000          0.0000           531.67        33.44          0.1400            0.0000          31.9000       PFind                   None            0.00    0.00    None
 50.0600         1.8206           0.0000          0.0000           255.83        16.09          0.0800            0.0000          20.4667       PFind                   None            0.00    0.00    None
 51.0600         1.7873           0.0000          0.0000            55.83         3.51          0.1400            0.0000           5.5833       PFind                   None            0.00    0.00    None
 52.0800         1.7546           0.0000          0.0000            74.17         4.66          0.0600            0.0000           5.9333       PFind                   None            0.00    0.00    None
 53.0800         1.7239           0.0000          0.0000            40.83         2.57          0.1600            0.0000           3.2667       PFind                   None            0.00    0.00    None
 54.9800         1.6687           0.0000          0.0000            48.33         3.04          0.1600            0.0000           3.8667       PFind                   None            0.00    0.00    None
 55.4200         1.6565           0.0000          0.0000            60.00         3.77          0.1000            0.0000           4.8000       PFind                   None            0.00    0.00    None
 55.7400         1.6478           0.0000          0.0000            34.17         2.15          0.0200            0.0000           3.4167       PFind                   None            0.00    0.00    None
 59.8800         1.5434           0.0000          0.0000           143.33         9.01          0.0200            0.0000          14.3333       PFind                   None            0.00    0.00    None
 61.4600         1.5074           0.0000          0.0000            45.00         2.83          0.0600            0.0000           7.2000       PFind                   None            0.00    0.00    None
 62.5200         1.4844           0.0000          0.0000            44.17         2.78          0.0400            0.0000           1.7667       PFind                   None            0.00    0.00    None

File: 25_9_9_55_1.txt
Position	Dspace	ESD(P)	Corr.Fact	Intensity	Rel.Int.	FWHM(L)	ESD(L)	Area	Source	Curve	Strain	CSize	CSize_Source
[deg]	[A]	[deg]	[deg]	[CPS]	[CPS]	[deg]	[deg]	[deg]	[--]	[--]	[--]	[--]	[--]
3.6800	23.9899	0.0000	0.0000	37.50	1.39	0.1400	0.0000	5.2500	PFind	None	0.00	0.00	None
4.0000	22.0714	0.0000	0.0000	60.83	2.25	0.0800	0.0000	0.0000	PFind	None	0.00	0.00	None
4.4000	20.0658	0.0000	0.0000	40.83	1.51	0.0800	0.0000	4.0833	PFind	None	0.00	0.00	None
4.6200	19.1107	0.0000	0.0000	45.00	1.67	0.1400	0.0000	0.9000	PFind	None	0.00	0.00	None
4.7600	18.5490	0.0000	0.0000	39.17	1.45	0.0400	0.0000	0.0000	PFind	None	0.00	0.00	None
4.9600	17.8015	0.0000	0.0000	48.33	1.79	0.1600	0.0000	0.9667	PFind	None	0.00	0.00	None
5.3400	16.5355	0.0000	0.0000	48.33	1.79	0.0800	0.0000	3.8667	PFind	None	0.00	0.00	None
6.2200	14.1979	0.0000	0.0000	90.00	3.33	0.0800	0.0000	9.0000	PFind	None	0.00	0.00	None
7.8400	11.2674	0.0000	0.0000	38.33	1.42	0.0600	0.0000	0.7667	PFind	None	0.00	0.00	None
8.8200	10.0176	0.0000	0.0000	217.50	8.05	0.0800	0.0000	26.1000	PFind	None	0.00	0.00	None
9.1400	9.6675	0.0000	0.0000	45.83	1.70	0.1400	0.0000	4.5833	PFind	None	0.00	0.00	None
10.4800	8.4342	0.0000	0.0000	56.67	2.10	0.1000	0.0000	3.4000	PFind	None	0.00	0.00	None
12.1200	7.2964	0.0000	0.0000	72.50	2.68	0.0800	0.0000	5.8000	PFind	None	0.00	0.00	None
12.4400	7.1094	0.0000	0.0000	410.83	15.21	0.0200	0.0000	41.0833	PFind	None	0.00	0.00	None
13.5800	6.5151	0.0000	0.0000	148.33	5.49	0.1400	0.0000	8.9000	PFind	None	0.00	0.00	None
13.7600	6.4302	0.0000	0.0000	43.33	1.60	0.0800	0.0000	3.4667	PFind	None	0.00	0.00	None
17.7200	5.0012	0.0000	0.0000	172.50	6.38	0.0800	0.0000	24.1500	PFind	None	0.00	0.00	None
18.4600	4.8023	0.0000	0.0000	48.33	1.79	0.1600	0.0000	7.7333	PFind	None	0.00	0.00	None
18.7400	4.7312	0.0000	0.0000	245.83	9.10	0.1200	0.0000	29.5000	PFind	None	0.00	0.00	None
20.8000	4.2670	0.0000	0.0000	377.50	13.97	0.0000	0.0000	37.7500	PFind	None	0.00	0.00	None
22.0400	4.0297	0.0000	0.0000	114.17	4.23	0.1000	0.0000	9.1333	PFind	None	0.00	0.00	None
22.8600	3.8870	0.0000	0.0000	40.00	1.48	0.0200	0.0000	0.8000	PFind	None	0.00	0.00	None
24.1800	3.6777	0.0000	0.0000	41.67	1.54	0.1000	0.0000	3.3333	PFind	None	0.00	0.00	None
24.2600	3.6657	0.0000	0.0000	65.83	2.44	0.1200	0.0000	2.6333	PFind	None	0.00	0.00	None
24.5400	3.6245	0.0000	0.0000	60.00	2.22	0.1400	0.0000	8.4000	PFind	None	0.00	0.00	None
25.1000	3.5449	0.0000	0.0000	508.33	18.82	0.1000	0.0000	61.0000	PFind	None	0.00	0.00	None
25.4200	3.5010	0.0000	0.0000	84.17	3.12	0.1400	0.0000	10.1000	PFind	None	0.00	0.00	None
26.6400	3.3434	0.0000	0.0000	2701.67	100.00	0.1400	0.0000	324.2000	PFind	None	0.00	0.00	None
27.4400	3.2477	0.0000	0.0000	83.33	3.08	0.1200	0.0000	6.6667	PFind	None	0.00	0.00	None
27.8200	3.2042	0.0000	0.0000	308.33	11.41	0.1000	0.0000	43.1667	PFind	None	0.00	0.00	None
28.4800	3.1314	0.0000	0.0000	63.33	2.34	0.1000	0.0000	7.6000	PFind	None	0.00	0.00	None
29.8400	2.9917	0.0000	0.0000	99.17	3.67	0.0200	0.0000	9.9167	PFind	None	0.00	0.00	None
30.5000	2.9285	0.0000	0.0000	40.83	1.51	0.0800	0.0000	4.0833	PFind	None	0.00	0.00	None
31.1800	2.8661	0.0000	0.0000	69.17	2.56	0.1400	0.0000	9.6833	PFind	None	0.00	0.00	None
31.5600	2.8325	0.0000	0.0000	107.50	3.98	0.0800	0.0000	8.6000	PFind	None	0.00	0.00	None
32.0400	2.7911	0.0000	0.0000	73.33	2.71	0.1200	0.0000	10.2667	PFind	None	0.00	0.00	None
34.9400	2.5658	0.0000	0.0000	41.67	1.54	0.1600	0.0000	4.1667	PFind	None	0.00	0.00	None
36.0400	2.4900	0.0000	0.0000	47.50	1.76	0.1200	0.0000	7.6000	PFind	None	0.00	0.00	None
36.4800	2.4610	0.0000	0.0000	180.83	6.69	0.0600	0.0000	14.4667	PFind	None	0.00	0.00	None
37.7800	2.3792	0.0000	0.0000	45.83	1.70	0.1000	0.0000	7.3333	PFind	None	0.00	0.00	None
38.0400	2.3636	0.0000	0.0000	590.83	21.87	0.0000	0.0000	70.9000	PFind	None	0.00	0.00	None
39.3800	2.2862	0.0000	0.0000	61.67	2.28	0.1400	0.0000	7.4000	PFind	None	0.00	0.00	None
40.2200	2.2403	0.0000	0.0000	63.33	2.34	0.1000	0.0000	6.3333	PFind	None	0.00	0.00	None
42.4200	2.1291	0.0000	0.0000	87.50	3.24	0.0400	0.0000	12.2500	PFind	None	0.00	0.00	None
44.2400	2.0456	0.0000	0.0000	325.83	12.06	0.0800	0.0000	45.6167	PFind	None	0.00	0.00	None
45.0200	2.0120	0.0000	0.0000	37.50	1.39	0.1000	0.0000	3.0000	PFind	None	0.00	0.00	None
45.5200	1.9910	0.0000	0.0000	231.67	8.57	0.0600	0.0000	37.0667	PFind	None	0.00	0.00	None
50.1000	1.8192	0.0000	0.0000	240.00	8.88	0.1000	0.0000	24.0000	PFind	None	0.00	0.00	None
54.8400	1.6727	0.0000	0.0000	117.50	4.35	0.1200	0.0000	9.4000	PFind	None	0.00	0.00	None
54.9800	1.6687	0.0000	0.0000	79.17	2.93	0.1200	0.0000	6.3333	PFind	None	0.00	0.00	None
55.1400	1.6643	0.0000	0.0000	37.50	1.39	0.0400	0.0000	0.7500	PFind	None	0.00	0.00	None
55.7200	1.6483	0.0000	0.0000	45.83	1.70	0.1200	0.0000	1.8333	PFind	None	0.00	0.00	None
59.8800	1.5434	0.0000	0.0000	355.00	13.14	0.0200	0.0000	21.3000	PFind	None	0.00	0.00	None
60.0400	1.5396	0.0000	0.0000	203.33	7.53	0.1000	0.0000	8.1333	PFind	None	0.00	0.00	None
64.3800	1.4459	0.0000	0.0000	257.50	9.53	0.0200	0.0000	25.7500	PFind	None	0.00	0.00	None
64.5400	1.4427	0.0000	0.0000	147.50	5.46	0.1600	0.0000	20.6500	PFind	None	0.00	0.00	None

File: 25_9_9_55_2_PF_FILTER.txt
Filename:
	C:\Program Files\Thermo Electron\WinXRD\Datafiles\FIEN\25_9_9.55_2 FILTER.pk

File Created:
	April 15, 2019 - 03:40 PM

Specimen Id:
	25.9 FILTRE 2 FT

Specimen Name:

Specimen Description:

Comment:
Scan Type: 2Theta Scan
Start Angle: 2 deg.
Stop Angle: 65 deg.
Num Points: 3151
Step Size: 0.02 deg.
Scan Rate: 1.000000
Scan Mode: Continuous
Wavelength: 1.540562
\Kalpha1: 1.540562	\Kalpha2: 1.544390	\Kbeta: 1.392218

Optics:
		Detector:
			 Type: Fixed Slits
		Tube:
			 Type: Fixed Slits

Datas:
Peaks:

Position        Dspace          ESD(P)          Corr.Fact       Intensity       Rel.Int.        FWHM(L)         ESD(L)          Area            Source                  Curve           Strain  CSize   CSize_Source
[deg]           [A]             [deg]           [deg]           [CPS]           [CPS]           [deg]           [deg]           [deg]           [--]                    [--]            [--]    [--]    [--]
  3.7000        23.8603           0.0000          0.0000            46.67         1.58          0.1400            0.0000           5.6000       PFind                   None            0.00    0.00    None
  4.1200        21.4288           0.0000          0.0000            43.33         1.47          0.0400            0.0000           6.9333       PFind                   None            0.00    0.00    None
  4.5200        19.5333           0.0000          0.0000            36.67         1.24          0.0600            0.0000           2.2000       PFind                   None            0.00    0.00    None
  5.3600        16.4739           0.0000          0.0000            38.33         1.30          0.1400            0.0000           0.7667       PFind                   None            0.00    0.00    None
  6.1600        14.3361           0.0000          0.0000           274.17         9.29          0.0600            0.0000          27.4167       PFind                   None            0.00    0.00    None
  6.7200        13.1426           0.0000          0.0000            35.83         1.21          0.1000            0.0000           1.4333       PFind                   None            0.00    0.00    None
  7.0800        12.4751           0.0000          0.0000            41.67         1.41          0.1600            0.0000           0.8333       PFind                   None            0.00    0.00    None
  7.9000        11.1820           0.0000          0.0000            39.17         1.33          0.1000            0.0000           0.7833       PFind                   None            0.00    0.00    None
  8.3200        10.6184           0.0000          0.0000            52.50         1.78          0.0400            0.0000           3.1500       PFind                   None            0.00    0.00    None
  9.1200         9.6887           0.0000          0.0000            65.00         2.20          0.0000            0.0000           7.8000       PFind                   None            0.00    0.00    None
 10.4200         8.4827           0.0000          0.0000           110.00         3.73          0.0800            0.0000           6.6000       PFind                   None            0.00    0.00    None
 12.4200         7.1208           0.0000          0.0000          1089.17        36.89          0.0800            0.0000          87.1333       PFind                   None            0.00    0.00    None
 17.7400         4.9956           0.0000          0.0000           487.50        16.51          0.1400            0.0000          58.5000       PFind                   None            0.00    0.00    None
 18.4800         4.7972           0.0000          0.0000            96.67         3.27          0.0200            0.0000          15.4667       PFind                   None            0.00    0.00    None
 19.8600         4.4668           0.0000          0.0000            36.67         1.24          0.0800            0.0000           3.6667       PFind                   None            0.00    0.00    None
 21.9800         4.0405           0.0000          0.0000           105.83         3.58          0.1000            0.0000          12.7000       PFind                   None            0.00    0.00    None
 23.4800         3.7857           0.0000          0.0000           388.33        13.15          0.0200            0.0000          38.8333       PFind                   None            0.00    0.00    None
 24.2600         3.6657           0.0000          0.0000            38.33         1.30          0.0600            0.0000           3.0667       PFind                   None            0.00    0.00    None
 25.1000         3.5449           0.0000          0.0000           625.00        21.17          0.1200            0.0000          75.0000       PFind                   None            0.00    0.00    None
 25.5800         3.4795           0.0000          0.0000            64.17         2.17          0.0800            0.0000           6.4167       PFind                   None            0.00    0.00    None
 26.8000         3.3238           0.0000          0.0000          1144.17        38.75          0.1600            0.0000         160.1833       PFind                   None            0.00    0.00    None
 27.8600         3.1997           0.0000          0.0000           427.50        14.48          0.0200            0.0000          68.4000       PFind                   None            0.00    0.00    None
 28.2800         3.1531           0.0000          0.0000           240.00         8.13          0.1200            0.0000          19.2000       PFind                   None            0.00    0.00    None
 29.8000         2.9957           0.0000          0.0000            41.67         1.41          0.1600            0.0000           6.6667       PFind                   None            0.00    0.00    None
 31.2400         2.8608           0.0000          0.0000            48.33         1.64          0.0800            0.0000           6.7667       PFind                   None            0.00    0.00    None
 33.4000         2.6805           0.0000          0.0000            40.00         1.35          0.0200            0.0000           3.2000       PFind                   None            0.00    0.00    None
 34.9200         2.5673           0.0000          0.0000            45.83         1.55          0.1400            0.0000           1.8333       PFind                   None            0.00    0.00    None
 35.4200         2.5322           0.0000          0.0000            42.50         1.44          0.0600            0.0000           6.8000       PFind                   None            0.00    0.00    None
 36.4800         2.4610           0.0000          0.0000            83.33         2.82          0.1000            0.0000          13.3333       PFind                   None            0.00    0.00    None
 37.5400         2.3939           0.0000          0.0000            38.33         1.30          0.0600            0.0000           3.8333       PFind                   None            0.00    0.00    None
 39.3800         2.2862           0.0000          0.0000            58.33         1.98          0.1000            0.0000           3.5000       PFind                   None            0.00    0.00    None
 42.4200         2.1291           0.0000          0.0000            95.83         3.25          0.1600            0.0000           7.6667       PFind                   None            0.00    0.00    None
 45.5200         1.9910           0.0000          0.0000           279.17         9.46          0.0200            0.0000          44.6667       PFind                   None            0.00    0.00    None
 50.2000         1.8158           0.0000          0.0000            55.00         1.86          0.1400            0.0000           4.4000       PFind                   None            0.00    0.00    None
 60.1000         1.5382           0.0000          0.0000            60.00         2.03          0.1200            0.0000           6.0000       PFind                   None            0.00    0.00    None
 64.5600         1.4423           0.0000          0.0000           483.33        16.37          0.0400            0.0000          58.0000       PFind                   None            0.00    0.00    None