Folder: Non-Linear-XRD-Inversion/Generating XRD fingerprints/INPUT/Detrital data (part 36)

File: G46_pf_RT.txt
Filename:
	C:\Program Files\Thermo Electron\WinXRD\Datafiles\FIEN2\GEO\G46_RT.pk

File Created:
	February 25, 2021 - 09:45 AM

Specimen Id:
	G46_RT

Specimen Name:

Specimen Description:

Comment:
Scan Type: 2Theta Scan
Start Angle: 3 deg.
Stop Angle: 65 deg.
Num Points: 3101
Step Size: 0.02 deg.
Scan Rate: 1.000000
Scan Mode: Continuous
Wavelength: 1.540562
\Kalpha1: 1.540562	\Kalpha2: 1.544390	\Kbeta: 1.392218

Optics:
		Detector:
			 Type: Fixed Slits
		Tube:
			 Type: Fixed Slits

Datas:
Peaks:

Position        Dspace          ESD(P)          Corr.Fact       Intensity       Rel.Int.        FWHM(L)         ESD(L)          Area            Source                  Curve           Strain  CSize   CSize_Source
[deg]           [A]             [deg]           [deg]           [CPS]           [CPS]           [deg]           [deg]           [deg]           [--]                    [--]            [--]    [--]    [--]
  4.8400        18.2426           0.0000          0.0000            54.17         1.43          0.1000            0.0000           2.1667       PFind                   None            0.00    0.00    None
  5.1200        17.2455           0.0000          0.0000            40.00         1.05          0.0800            0.0000           0.8000       PFind                   None            0.00    0.00    None
  6.1600        14.3361           0.0000          0.0000           134.17         3.53          0.0800            0.0000          16.1000       PFind                   None            0.00    0.00    None
  6.6400        13.3008           0.0000          0.0000            52.50         1.38          0.1000            0.0000           5.2500       PFind                   None            0.00    0.00    None
  6.9400        12.7265           0.0000          0.0000            64.17         1.69          0.1200            0.0000           5.1333       PFind                   None            0.00    0.00    None
  7.2800        12.1328           0.0000          0.0000            66.67         1.76          0.1200            0.0000           0.0000       PFind                   None            0.00    0.00    None
  8.1200        10.8795           0.0000          0.0000            41.67         1.10          0.1000            0.0000           3.3333       PFind                   None            0.00    0.00    None
  8.8200        10.0176           0.0000          0.0000           633.33        16.68          0.0800            0.0000          38.0000       PFind                   None            0.00    0.00    None
  9.4000         9.4007           0.0000          0.0000            61.67         1.62          0.0800            0.0000           3.7000       PFind                   None            0.00    0.00    None
 10.0000         8.8380           0.0000          0.0000            38.33         1.01          0.1600            0.0000           2.3000       PFind                   None            0.00    0.00    None
 10.8000         8.1850           0.0000          0.0000            41.67         1.10          0.0600            0.0000           0.0000       PFind                   None            0.00    0.00    None
 12.1200         7.2964           0.0000          0.0000           315.00         8.30          0.0200            0.0000          25.2000       PFind                   None            0.00    0.00    None
 13.5800         6.5151           0.0000          0.0000            48.33         1.27          0.1000            0.0000           0.9667       PFind                   None            0.00    0.00    None
 14.9000         5.9407           0.0000          0.0000            36.67         0.97          0.0600            0.0000           1.4667       PFind                   None            0.00    0.00    None
 17.7800         4.9844           0.0000          0.0000           210.83         5.55          0.0600            0.0000          21.0833       PFind                   None            0.00    0.00    None
 18.7400         4.7312           0.0000          0.0000           112.50         2.96          0.0800            0.0000          11.2500       PFind                   None            0.00    0.00    None
 19.9400         4.4491           0.0000          0.0000            38.33         1.01          0.1000            0.0000           3.0667       PFind                   None            0.00    0.00    None
 21.5200         4.1259           0.0000          0.0000            37.50         0.99          0.0600            0.0000           0.0000       PFind                   None            0.00    0.00    None
 22.1800         4.0046           0.0000          0.0000           174.17         4.59          0.1000            0.0000          13.9333       PFind                   None            0.00    0.00    None
 22.9600         3.8703           0.0000          0.0000            46.67         1.23          0.0800            0.0000           5.6000       PFind                   None            0.00    0.00    None
 23.5000         3.7825           0.0000          0.0000           164.17         4.32          0.0800            0.0000          16.4167       PFind                   None            0.00    0.00    None
 24.5600         3.6216           0.0000          0.0000           185.00         4.87          0.1600            0.0000          18.5000       PFind                   None            0.00    0.00    None
 25.1000         3.5449           0.0000          0.0000           210.83         5.55          0.0600            0.0000          25.3000       PFind                   None            0.00    0.00    None
 26.2600         3.3909           0.0000          0.0000           180.00         4.74          0.0800            0.0000          18.0000       PFind                   None            0.00    0.00    None
 26.8000         3.3238           0.0000          0.0000           624.17        16.44          0.1200            0.0000          99.8667       PFind                   None            0.00    0.00    None
 27.8600         3.1997           0.0000          0.0000           764.17        20.13          0.0800            0.0000          91.7000       PFind                   None            0.00    0.00    None
 29.7600         2.9996           0.0000          0.0000           268.33         7.07          0.0800            0.0000          26.8333       PFind                   None            0.00    0.00    None
 30.4200         2.9360           0.0000          0.0000            74.17         1.95          0.1000            0.0000           7.4167       PFind                   None            0.00    0.00    None
 31.1600         2.8679           0.0000          0.0000            72.50         1.91          0.1600            0.0000           8.7000       PFind                   None            0.00    0.00    None
 32.1800         2.7793           0.0000          0.0000            48.33         1.27          0.1600            0.0000           3.8667       PFind                   None            0.00    0.00    None
 34.4800         2.5990           0.0000          0.0000           108.33         2.85          0.0400            0.0000           8.6667       PFind                   None            0.00    0.00    None
 35.5200         2.5253           0.0000          0.0000           130.00         3.42          0.0800            0.0000          18.2000       PFind                   None            0.00    0.00    None
 36.4600         2.4623           0.0000          0.0000           240.83         6.34          0.0800            0.0000          24.0833       PFind                   None            0.00    0.00    None
 37.6000         2.3902           0.0000          0.0000            50.83         1.34          0.1200            0.0000           8.1333       PFind                   None            0.00    0.00    None
 40.2400         2.2393           0.0000          0.0000           162.50         4.28          0.0400            0.0000           9.7500       PFind                   None            0.00    0.00    None
 42.4000         2.1301           0.0000          0.0000           239.17         6.30          0.0800            0.0000          14.3500       PFind                   None            0.00    0.00    None
 43.4600         2.0805           0.0000          0.0000           200.00         5.27          0.0200            0.0000          32.0000       PFind                   None            0.00    0.00    None
 45.0600         2.0103           0.0000          0.0000            49.17         1.29          0.1600            0.0000           3.9333       PFind                   None            0.00    0.00    None
 45.7200         1.9828           0.0000          0.0000           249.17         6.56          0.0000            0.0000          19.9333       PFind                   None            0.00    0.00    None
 48.1200         1.8894           0.0000          0.0000            53.33         1.40          0.0800            0.0000           5.3333       PFind                   None            0.00    0.00    None
 50.0800         1.8199           0.0000          0.0000           416.67        10.97          0.1200            0.0000          33.3333       PFind                   None            0.00    0.00    None
 51.0800         1.7866           0.0000          0.0000            40.00         1.05          0.0400            0.0000           4.0000       PFind                   None            0.00    0.00    None
 54.8200         1.6732           0.0000          0.0000           160.00         4.21          0.0600            0.0000          16.0000       PFind                   None            0.00    0.00    None
 55.8000         1.6461           0.0000          0.0000            50.00         1.32          0.0800            0.0000           5.0000       PFind                   None            0.00    0.00    None
 58.5400         1.5755           0.0000          0.0000            99.17         2.61          0.1000            0.0000           3.9667       PFind                   None            0.00    0.00    None
 59.9000         1.5429           0.0000          0.0000           326.67         8.60          0.1000            0.0000          26.1333       PFind                   None            0.00    0.00    None
 61.4200         1.5083           0.0000          0.0000            75.83         2.00          0.1000            0.0000           7.5833       PFind                   None            0.00    0.00    None
 61.8600         1.4986           0.0000          0.0000           248.33         6.54          0.0200            0.0000          14.9000       PFind                   None            0.00    0.00    None
 63.9600         1.4544           0.0000          0.0000            56.67         1.49          0.0800            0.0000           3.4000       PFind                   None            0.00    0.00    None

File: G47_pf_RT.txt
Filename:
	C:\Program Files\Thermo Electron\WinXRD\Datafiles\FIEN2\GEO\G47_RT.pk

File Created:
	February 25, 2021 - 09:46 AM

Specimen Id:
	G47_RT

Specimen Name:

Specimen Description:

Comment:
Scan Type: 2Theta Scan
Start Angle: 3 deg.
Stop Angle: 65 deg.
Num Points: 3101
Step Size: 0.02 deg.
Scan Rate: 1.000000
Scan Mode: Continuous
Wavelength: 1.540562
\Kalpha1: 1.540562	\Kalpha2: 1.544390	\Kbeta: 1.392218

Optics:
		Detector:
			 Type: Fixed Slits
		Tube:
			 Type: Fixed Slits

Datas:
Peaks:

Position        Dspace          ESD(P)          Corr.Fact       Intensity       Rel.Int.        FWHM(L)         ESD(L)          Area            Source                  Curve           Strain  CSize   CSize_Source
[deg]           [A]             [deg]           [deg]           [CPS]           [CPS]           [deg]           [deg]           [deg]           [--]                    [--]            [--]    [--]    [--]
  4.7000        18.7856           0.0000          0.0000            52.50         1.54          0.0600            0.0000           1.0500       PFind                   None            0.00    0.00    None
  5.6600        15.6013           0.0000          0.0000            47.50         1.40          0.1600            0.0000           7.6000       PFind                   None            0.00    0.00    None
  6.5000        13.5869           0.0000          0.0000            46.67         1.37          0.1200            0.0000           3.7333       PFind                   None            0.00    0.00    None
  7.1400        12.3704           0.0000          0.0000            40.83         1.20          0.1600            0.0000           0.8167       PFind                   None            0.00    0.00    None
  7.7200        11.4423           0.0000          0.0000            25.00         0.73          0.0800            0.0000           3.0000       PFind                   None            0.00    0.00    None
  8.7800        10.0631           0.0000          0.0000           490.83        14.43          0.1000            0.0000          29.4500       PFind                   None            0.00    0.00    None
  9.9600         8.8734           0.0000          0.0000            33.33         0.98          0.0600            0.0000           1.3333       PFind                   None            0.00    0.00    None
 11.0800         7.9788           0.0000          0.0000            45.83         1.35          0.1200            0.0000           0.0000       PFind                   None            0.00    0.00    None
 12.4000         7.1323           0.0000          0.0000           233.33         6.86          0.0000            0.0000          28.0000       PFind                   None            0.00    0.00    None
 13.6400         6.4865           0.0000          0.0000            33.33         0.98          0.0600            0.0000           5.3333       PFind                   None            0.00    0.00    None
 14.6800         6.0293           0.0000          0.0000            31.67         0.93          0.1200            0.0000           1.9000       PFind                   None            0.00    0.00    None
 15.7000         5.6398           0.0000          0.0000            30.00         0.88          0.1000            0.0000           1.2000       PFind                   None            0.00    0.00    None
 16.7600         5.2854           0.0000          0.0000            28.33         0.83          0.1200            0.0000           1.7000       PFind                   None            0.00    0.00    None
 18.3000         4.8439           0.0000          0.0000            38.33         1.13          0.0800            0.0000           3.8333       PFind                   None            0.00    0.00    None
 19.2400         4.6093           0.0000          0.0000            24.17         0.71          0.1000            0.0000           0.4833       PFind                   None            0.00    0.00    None
 20.3000         4.3710           0.0000          0.0000            25.00         0.73          0.1000            0.0000           0.5000       PFind                   None            0.00    0.00    None
 21.9600         4.0442           0.0000          0.0000           786.67        23.12          0.1200            0.0000          47.2000       PFind                   None            0.00    0.00    None
 22.9400         3.8736           0.0000          0.0000            98.33         2.89          0.0400            0.0000           9.8333       PFind                   None            0.00    0.00    None
 24.5200         3.6274           0.0000          0.0000           448.33        13.18          0.0200            0.0000          53.8000       PFind                   None            0.00    0.00    None
 26.7800         3.3262           0.0000          0.0000           526.67        15.48          0.1400            0.0000          73.7333       PFind                   None            0.00    0.00    None
 28.6200         3.1164           0.0000          0.0000           108.33         3.18          0.0000            0.0000          17.3333       PFind                   None            0.00    0.00    None
 30.3800         2.9398           0.0000          0.0000            54.17         1.59          0.0800            0.0000           6.5000       PFind                   None            0.00    0.00    None
 31.7600         2.8151           0.0000          0.0000            49.17         1.45          0.1000            0.0000           4.9167       PFind                   None            0.00    0.00    None
 32.9000         2.7201           0.0000          0.0000            30.00         0.88          0.0400            0.0000           1.2000       PFind                   None            0.00    0.00    None
 35.2000         2.5475           0.0000          0.0000            30.83         0.91          0.1600            0.0000           1.2333       PFind                   None            0.00    0.00    None
 36.8800         2.4352           0.0000          0.0000            68.33         2.01          0.0200            0.0000           2.7333       PFind                   None            0.00    0.00    None
 38.5200         2.3352           0.0000          0.0000            37.50         1.10          0.0200            0.0000           4.5000       PFind                   None            0.00    0.00    None
 40.1600         2.2435           0.0000          0.0000            86.67         2.55          0.0400            0.0000           5.2000       PFind                   None            0.00    0.00    None
 43.5000         2.0787           0.0000          0.0000            63.33         1.86          0.0800            0.0000           7.6000       PFind                   None            0.00    0.00    None
 45.5000         1.9919           0.0000          0.0000           189.17         5.56          0.1200            0.0000          30.2667       PFind                   None            0.00    0.00    None
 48.5600         1.8733           0.0000          0.0000            31.67         0.93          0.0600            0.0000           0.0000       PFind                   None            0.00    0.00    None
 50.4400         1.8078           0.0000          0.0000            60.83         1.79          0.0600            0.0000           6.0833       PFind                   None            0.00    0.00    None
 52.0200         1.7565           0.0000          0.0000            77.50         2.28          0.0800            0.0000           4.6500       PFind                   None            0.00    0.00    None
 53.1000         1.7233           0.0000          0.0000            35.00         1.03          0.1000            0.0000           2.8000       PFind                   None            0.00    0.00    None
 55.2200         1.6621           0.0000          0.0000            39.17         1.15          0.1200            0.0000           2.3500       PFind                   None            0.00    0.00    None
 56.5400         1.6263           0.0000          0.0000            27.50         0.81          0.0800            0.0000           4.4000       PFind                   None            0.00    0.00    None
 57.5000         1.6015           0.0000          0.0000            27.50         0.81          0.0600            0.0000           0.0000       PFind                   None            0.00    0.00    None
 59.2600         1.5580           0.0000          0.0000            29.17         0.86          0.1000            0.0000           1.7500       PFind                   None            0.00    0.00    None
 61.3600         1.5096           0.0000          0.0000            60.00         1.76          0.0000            0.0000           4.8000       PFind                   None            0.00    0.00    None
 63.9200         1.4552           0.0000          0.0000            59.17         1.74          0.0400            0.0000           4.7333       PFind                   None            0.00    0.00    None