Folder: Non-Linear-XRD-Inversion/Generating XRD fingerprints/INPUT/Detrital data (part 12)

File: 12_2_AUG_PF_RT.txt
Filename:
	C:\Program Files\Thermo Electron\WinXRD\Datafiles\FIEN\12_2_AUG_RT.pk

File Created:
	March 05, 2019 - 10:35 PM

Specimen Id:
	12.2 AUG RT

Specimen Name:

Specimen Description:

Comment:
Scan Type: 2Theta Scan
Start Angle: 1 deg.
Stop Angle: 65 deg.
Num Points: 3201
Step Size: 0.02 deg.
Scan Rate: 1.000000
Scan Mode: Continuous
Wavelength: 1.540562
\Kalpha1: 1.540562	\Kalpha2: 1.544390	\Kbeta: 1.392218

Optics:
		Detector:
			 Type: Fixed Slits
		Tube:
			 Type: Fixed Slits

Datas:
Peaks:

Position        Dspace          ESD(P)          Corr.Fact       Intensity       Rel.Int.        FWHM(L)         ESD(L)          Area            Source                  Curve           Strain  CSize   CSize_Source
[deg]           [A]             [deg]           [deg]           [CPS]           [CPS]           [deg]           [deg]           [deg]           [--]                    [--]            [--]    [--]    [--]
  2.6800        32.9387           0.0000          0.0000            75.83         2.80          0.0400            0.0000           7.5833       PFind                   None            0.00    0.00    None
  3.4400        25.6631           0.0000          0.0000            59.17         2.19          0.1200            0.0000           4.7333       PFind                   None            0.00    0.00    None
  4.2400        20.8226           0.0000          0.0000            53.33         1.97          0.0200            0.0000           4.2667       PFind                   None            0.00    0.00    None
  4.8800        18.0931           0.0000          0.0000            42.50         1.57          0.0400            0.0000           0.0000       PFind                   None            0.00    0.00    None
  5.6200        15.7123           0.0000          0.0000            38.33         1.42          0.0800            0.0000           2.3000       PFind                   None            0.00    0.00    None
  6.5600        13.4628           0.0000          0.0000            38.33         1.42          0.1000            0.0000           1.5333       PFind                   None            0.00    0.00    None
  7.3800        11.9687           0.0000          0.0000            37.50         1.39          0.1000            0.0000           0.0000       PFind                   None            0.00    0.00    None
  8.1800        10.7998           0.0000          0.0000            29.17         1.08          0.0600            0.0000           1.7500       PFind                   None            0.00    0.00    None
  9.1800         9.6255           0.0000          0.0000            40.83         1.51          0.0400            0.0000           0.8167       PFind                   None            0.00    0.00    None
 10.1800         8.6821           0.0000          0.0000            25.00         0.92          0.0400            0.0000           1.0000       PFind                   None            0.00    0.00    None
 11.0400         8.0076           0.0000          0.0000            24.17         0.89          0.0200            0.0000           0.0000       PFind                   None            0.00    0.00    None
 12.4600         7.0981           0.0000          0.0000           345.83        12.78          0.0800            0.0000          20.7500       PFind                   None            0.00    0.00    None
 13.1800         6.7119           0.0000          0.0000            35.83         1.32          0.0600            0.0000           1.4333       PFind                   None            0.00    0.00    None
 14.1200         6.2671           0.0000          0.0000            25.00         0.92          0.1000            0.0000           0.5000       PFind                   None            0.00    0.00    None
 14.7200         6.0130           0.0000          0.0000            30.00         1.11          0.1400            0.0000           1.8000       PFind                   None            0.00    0.00    None
 16.0800         5.5073           0.0000          0.0000            25.00         0.92          0.0600            0.0000           1.0000       PFind                   None            0.00    0.00    None
 17.9800         4.9294           0.0000          0.0000            27.50         1.02          0.0800            0.0000           3.3000       PFind                   None            0.00    0.00    None
 19.4400         4.5624           0.0000          0.0000            25.00         0.92          0.0400            0.0000           0.5000       PFind                   None            0.00    0.00    None
 20.8000         4.2670           0.0000          0.0000           671.67        24.82          0.1000            0.0000          53.7333       PFind                   None            0.00    0.00    None
 22.4400         3.9588           0.0000          0.0000            20.00         0.74          0.1200            0.0000           0.0000       PFind                   None            0.00    0.00    None
 23.7600         3.7417           0.0000          0.0000            20.00         0.74          0.1000            0.0000           0.8000       PFind                   None            0.00    0.00    None
 24.8000         3.5871           0.0000          0.0000            52.50         1.94          0.0600            0.0000           6.3000       PFind                   None            0.00    0.00    None
 26.8200         3.3214           0.0000          0.0000           835.83        30.88          0.0600            0.0000         100.3000       PFind                   None            0.00    0.00    None
 27.9200         3.1929           0.0000          0.0000           626.67        23.15          0.0800            0.0000          75.2000       PFind                   None            0.00    0.00    None
 29.4400         3.0315           0.0000          0.0000            21.67         0.80          0.0600            0.0000           3.0333       PFind                   None            0.00    0.00    None
 30.4400         2.9341           0.0000          0.0000            81.67         3.02          0.0400            0.0000           4.9000       PFind                   None            0.00    0.00    None
 32.0600         2.7895           0.0000          0.0000            40.00         1.48          0.0200            0.0000           6.4000       PFind                   None            0.00    0.00    None
 33.1000         2.7041           0.0000          0.0000            35.83         1.32          0.0600            0.0000           2.1500       PFind                   None            0.00    0.00    None
 34.0000         2.6346           0.0000          0.0000            38.33         1.42          0.1200            0.0000           0.0000       PFind                   None            0.00    0.00    None
 35.5000         2.5266           0.0000          0.0000            75.83         2.80          0.0000            0.0000          10.6167       PFind                   None            0.00    0.00    None
 36.9400         2.4314           0.0000          0.0000            30.83         1.14          0.0000            0.0000           0.6167       PFind                   None            0.00    0.00    None
 38.5200         2.3352           0.0000          0.0000            28.33         1.05          0.0200            0.0000           0.5667       PFind                   None            0.00    0.00    None
 40.2400         2.2393           0.0000          0.0000            94.17         3.48          0.0600            0.0000           7.5333       PFind                   None            0.00    0.00    None
 43.5400         2.0769           0.0000          0.0000            26.67         0.99          0.1600            0.0000           2.1333       PFind                   None            0.00    0.00    None
 45.0400         2.0111           0.0000          0.0000            30.00         1.11          0.1200            0.0000           4.8000       PFind                   None            0.00    0.00    None
 46.6200         1.9466           0.0000          0.0000            24.17         0.89          0.0200            0.0000           0.4833       PFind                   None            0.00    0.00    None
 48.3200         1.8820           0.0000          0.0000            20.00         0.74          0.0400            0.0000           2.0000       PFind                   None            0.00    0.00    None
 50.1000         1.8192           0.0000          0.0000           433.33        16.01          0.0800            0.0000          26.0000       PFind                   None            0.00    0.00    None
 51.2000         1.7827           0.0000          0.0000            30.00         1.11          0.1200            0.0000           1.8000       PFind                   None            0.00    0.00    None
 52.2600         1.7490           0.0000          0.0000            20.83         0.77          0.0000            0.0000           0.4167       PFind                   None            0.00    0.00    None
 54.4000         1.6852           0.0000          0.0000            26.67         0.99          0.1400            0.0000           0.0000       PFind                   None            0.00    0.00    None
 55.4200         1.6565           0.0000          0.0000            22.50         0.83          0.0400            0.0000           2.7000       PFind                   None            0.00    0.00    None
 57.2000         1.6091           0.0000          0.0000            25.00         0.92          0.0200            0.0000           1.5000       PFind                   None            0.00    0.00    None
 58.9000         1.5667           0.0000          0.0000            29.17         1.08          0.0000            0.0000           0.0000       PFind                   None            0.00    0.00    None
 59.6200         1.5495           0.0000          0.0000            20.83         0.77          0.1000            0.0000           0.4167       PFind                   None            0.00    0.00    None
 60.7800         1.5226           0.0000          0.0000            22.50         0.83          0.0800            0.0000           1.8000       PFind                   None            0.00    0.00    None
 61.8600         1.4986           0.0000          0.0000            33.33         1.23          0.0200            0.0000           2.0000       PFind                   None            0.00    0.00    None
 64.1800         1.4499           0.0000          0.0000            20.83         0.77          0.0800            0.0000           0.4167       PFind                   None            0.00    0.00    None
 64.3600         1.4463           0.0000          0.0000            20.00         0.74          0.0800            0.0000           0.4000       PFind                   None            0.00    0.00    None

File: 12_2_SEPT_PF_FILTER.txt
Filename:
	H:\12_2_SEPT_FILTER.pk

File Created:
	April 16, 2019 - 04:33 PM

Specimen Id:
	12.1 SEPT FILTER

Specimen Name:

Specimen Description:

Comment:
Scan Type: 2Theta Scan
Start Angle: 2 deg.
Stop Angle: 65 deg.
Num Points: 3151
Step Size: 0.02 deg.
Scan Rate: 1.000000
Scan Mode: Continuous
Wavelength: 1.540562
\Kalpha1: 1.540562	\Kalpha2: 1.544390	\Kbeta: 1.392218

Optics:
		Detector:
			 Type: Fixed Slits
		Tube:
			 Type: Fixed Slits

Datas:
Peaks:

Position        Dspace          ESD(P)          Corr.Fact       Intensity       Rel.Int.        FWHM(L)         ESD(L)          Area            Source                  Curve           Strain  CSize   CSize_Source
[deg]           [A]             [deg]           [deg]           [CPS]           [CPS]           [deg]           [deg]           [deg]           [--]                    [--]            [--]    [--]    [--]
  3.8800        22.7538           0.0000          0.0000            55.83         3.98          0.0600            0.0000           3.3500       PFind                   None            0.00    0.00    None
  4.3200        20.4372           0.0000          0.0000            50.83         3.63          0.1600            0.0000           1.0167       PFind                   None            0.00    0.00    None
  4.6800        18.8659           0.0000          0.0000            34.17         2.44          0.0400            0.0000           0.6833       PFind                   None            0.00    0.00    None
  5.5200        15.9967           0.0000          0.0000            37.50         2.68          0.0600            0.0000           0.0000       PFind                   None            0.00    0.00    None
  6.7400        13.1037           0.0000          0.0000            35.83         2.56          0.0800            0.0000           0.7167       PFind                   None            0.00    0.00    None
  8.1000        10.9063           0.0000          0.0000            40.00         2.85          0.0400            0.0000           1.6000       PFind                   None            0.00    0.00    None
  9.1600         9.6465           0.0000          0.0000            51.67         3.69          0.1200            0.0000           8.2667       PFind                   None            0.00    0.00    None
 10.5000         8.4182           0.0000          0.0000            80.00         5.71          0.1400            0.0000          11.2000       PFind                   None            0.00    0.00    None
 12.4800         7.0867           0.0000          0.0000           375.83        26.81          0.0000            0.0000          60.1333       PFind                   None            0.00    0.00    None
 17.8200         4.9733           0.0000          0.0000           288.33        20.57          0.0400            0.0000          34.6000       PFind                   None            0.00    0.00    None
 18.8000         4.7162           0.0000          0.0000           182.50        13.02          0.1400            0.0000          25.5500       PFind                   None            0.00    0.00    None
 20.8800         4.2509           0.0000          0.0000           350.83        25.03          0.1400            0.0000          35.0833       PFind                   None            0.00    0.00    None
 23.0400         3.8570           0.0000          0.0000            65.00         4.64          0.1400            0.0000           7.8000       PFind                   None            0.00    0.00    None
 24.3000         3.6598           0.0000          0.0000            91.67         6.54          0.1200            0.0000          11.0000       PFind                   None            0.00    0.00    None
 25.1800         3.5338           0.0000          0.0000           322.50        23.01          0.0200            0.0000          38.7000       PFind                   None            0.00    0.00    None
 25.6200         3.4741           0.0000          0.0000           127.50         9.10          0.1200            0.0000          17.8500       PFind                   None            0.00    0.00    None
 26.8800         3.3141           0.0000          0.0000           747.50        53.33          0.0600            0.0000         104.6500       PFind                   None            0.00    0.00    None
 27.9200         3.1929           0.0000          0.0000           395.00        28.18          0.0200            0.0000          63.2000       PFind                   None            0.00    0.00    None
 28.6400         3.1143           0.0000          0.0000           173.33        12.37          0.1000            0.0000          24.2667       PFind                   None            0.00    0.00    None
 30.2000         2.9569           0.0000          0.0000            56.67         4.04          0.1200            0.0000           7.9333       PFind                   None            0.00    0.00    None
 30.8400         2.8970           0.0000          0.0000            94.17         6.72          0.1200            0.0000          11.3000       PFind                   None            0.00    0.00    None
 31.6400         2.8255           0.0000          0.0000            56.67         4.04          0.1400            0.0000           6.8000       PFind                   None            0.00    0.00    None
 33.0400         2.7089           0.0000          0.0000            37.50         2.68          0.0400            0.0000           2.2500       PFind                   None            0.00    0.00    None
 35.0200         2.5602           0.0000          0.0000            71.67         5.11          0.1200            0.0000          11.4667       PFind                   None            0.00    0.00    None
 36.0600         2.4887           0.0000          0.0000            62.50         4.46          0.1400            0.0000           7.5000       PFind                   None            0.00    0.00    None
 37.4600         2.3988           0.0000          0.0000            34.17         2.44          0.0800            0.0000           5.4667       PFind                   None            0.00    0.00    None
 38.1000         2.3600           0.0000          0.0000            38.33         2.73          0.0600            0.0000           3.0667       PFind                   None            0.00    0.00    None
 40.2800         2.2371           0.0000          0.0000            54.17         3.86          0.1600            0.0000           6.5000       PFind                   None            0.00    0.00    None
 41.8600         2.1563           0.0000          0.0000            46.67         3.33          0.1200            0.0000           1.8667       PFind                   None            0.00    0.00    None
 44.2800         2.0439           0.0000          0.0000            39.17         2.79          0.1000            0.0000           3.1333       PFind                   None            0.00    0.00    None
 45.5800         1.9886           0.0000          0.0000           267.50        19.08          0.0400            0.0000          42.8000       PFind                   None            0.00    0.00    None
 47.1600         1.9256           0.0000          0.0000            44.17         3.15          0.1400            0.0000           2.6500       PFind                   None            0.00    0.00    None
 49.7800         1.8302           0.0000          0.0000            38.33         2.73          0.0800            0.0000           2.3000       PFind                   None            0.00    0.00    None
 50.1400         1.8179           0.0000          0.0000           168.33        12.01          0.1600            0.0000          16.8333       PFind                   None            0.00    0.00    None
 51.1000         1.7860           0.0000          0.0000            45.83         3.27          0.1200            0.0000           3.6667       PFind                   None            0.00    0.00    None
 52.1400         1.7528           0.0000          0.0000            42.50         3.03          0.1600            0.0000           1.7000       PFind                   None            0.00    0.00    None
 53.2600         1.7185           0.0000          0.0000            42.50         3.03          0.1400            0.0000           3.4000       PFind                   None            0.00    0.00    None
 55.3000         1.6598           0.0000          0.0000            41.67         2.97          0.0600            0.0000           5.0000       PFind                   None            0.00    0.00    None
 58.7600         1.5701           0.0000          0.0000            34.17         2.44          0.1000            0.0000           2.7333       PFind                   None            0.00    0.00    None
 60.1200         1.5378           0.0000          0.0000            88.33         6.30          0.1600            0.0000           8.8333       PFind                   None            0.00    0.00    None
 64.2200         1.4491           0.0000          0.0000            40.83         2.91          0.1600            0.0000           1.6333       PFind                   None            0.00    0.00    None
 64.5600         1.4423           0.0000          0.0000            35.83         2.56          0.1600            0.0000           1.4333       PFind                   None            0.00    0.00    None