Folder: Non-Linear-XRD-Inversion/Generating XRD fingerprints/INPUT/Detrital data (part 51)

File: G89_pf_RT.txt
Filename:
	C:\Program Files\Thermo Electron\WinXRD\Datafiles\FIEN2\GEO\G89_RT.pk

File Created:
	February 25, 2021 - 10:05 AM

Specimen Id:
	G89_RT

Specimen Name:

Specimen Description:

Comment:
Scan Type: 2Theta Scan
Start Angle: 3 deg.
Stop Angle: 65 deg.
Num Points: 3101
Step Size: 0.02 deg.
Scan Rate: 1.000000
Scan Mode: Continuous
Wavelength: 1.540562
\Kalpha1: 1.540562	\Kalpha2: 1.544390	\Kbeta: 1.392218

Optics:
		Detector:
			 Type: Fixed Slits
		Tube:
			 Type: Fixed Slits

Datas:
Peaks:

Position        Dspace          ESD(P)          Corr.Fact       Intensity       Rel.Int.        FWHM(L)         ESD(L)          Area            Source                  Curve           Strain  CSize   CSize_Source
[deg]           [A]             [deg]           [deg]           [CPS]           [CPS]           [deg]           [deg]           [deg]           [--]                    [--]            [--]    [--]    [--]
  4.7200        18.7061           0.0000          0.0000            60.00         1.30          0.0800            0.0000           4.8000       PFind                   None            0.00    0.00    None
  5.5200        15.9967           0.0000          0.0000            59.17         1.28          0.1400            0.0000           0.0000       PFind                   None            0.00    0.00    None
  6.1800        14.2897           0.0000          0.0000           157.50         3.41          0.0400            0.0000          12.6000       PFind                   None            0.00    0.00    None
  6.8200        12.9501           0.0000          0.0000            30.00         0.65          0.0400            0.0000           2.4000       PFind                   None            0.00    0.00    None
  7.5200        11.7462           0.0000          0.0000            31.67         0.69          0.0400            0.0000           1.9000       PFind                   None            0.00    0.00    None
  8.1400        10.8528           0.0000          0.0000            53.33         1.16          0.1000            0.0000           2.1333       PFind                   None            0.00    0.00    None
  9.4800         9.3216           0.0000          0.0000            40.00         0.87          0.0800            0.0000           0.8000       PFind                   None            0.00    0.00    None
 10.0600         8.7854           0.0000          0.0000            34.17         0.74          0.0600            0.0000           2.0500       PFind                   None            0.00    0.00    None
 10.5800         8.3547           0.0000          0.0000            30.00         0.65          0.1200            0.0000           0.6000       PFind                   None            0.00    0.00    None
 11.6000         7.6223           0.0000          0.0000            35.00         0.76          0.1400            0.0000           2.1000       PFind                   None            0.00    0.00    None
 12.1200         7.2964           0.0000          0.0000           110.83         2.40          0.1000            0.0000           6.6500       PFind                   None            0.00    0.00    None
 13.2800         6.6616           0.0000          0.0000            34.17         0.74          0.0800            0.0000           2.0500       PFind                   None            0.00    0.00    None
 13.9800         6.3295           0.0000          0.0000            45.00         0.98          0.1400            0.0000           0.9000       PFind                   None            0.00    0.00    None
 15.4800         5.7194           0.0000          0.0000            35.83         0.78          0.1200            0.0000           0.7167       PFind                   None            0.00    0.00    None
 16.3800         5.4071           0.0000          0.0000            31.67         0.69          0.0200            0.0000           2.5333       PFind                   None            0.00    0.00    None
 18.3600         4.8282           0.0000          0.0000            38.33         0.83          0.0800            0.0000           2.3000       PFind                   None            0.00    0.00    None
 19.8400         4.4713           0.0000          0.0000            45.83         0.99          0.1000            0.0000           5.5000       PFind                   None            0.00    0.00    None
 21.9600         4.0442           0.0000          0.0000           153.33         3.32          0.0800            0.0000          15.3333       PFind                   None            0.00    0.00    None
 23.4800         3.7857           0.0000          0.0000            95.00         2.06          0.0600            0.0000           7.6000       PFind                   None            0.00    0.00    None
 24.2000         3.6747           0.0000          0.0000            90.00         1.95          0.0400            0.0000          12.6000       PFind                   None            0.00    0.00    None
 25.4400         3.4983           0.0000          0.0000           141.67         3.07          0.0800            0.0000          14.1667       PFind                   None            0.00    0.00    None
 26.8000         3.3238           0.0000          0.0000          1185.00        25.68          0.0400            0.0000         165.9000       PFind                   None            0.00    0.00    None
 27.8200         3.2042           0.0000          0.0000           466.67        10.11          0.0600            0.0000          74.6667       PFind                   None            0.00    0.00    None
 28.8600         3.0911           0.0000          0.0000            30.00         0.65          0.1000            0.0000           2.4000       PFind                   None            0.00    0.00    None
 30.4000         2.9379           0.0000          0.0000            98.33         2.13          0.0000            0.0000           9.8333       PFind                   None            0.00    0.00    None
 31.5600         2.8325           0.0000          0.0000            73.33         1.59          0.0600            0.0000           7.3333       PFind                   None            0.00    0.00    None
 34.5200         2.5961           0.0000          0.0000            39.17         0.85          0.1400            0.0000           3.9167       PFind                   None            0.00    0.00    None
 35.7200         2.5116           0.0000          0.0000            36.67         0.79          0.1600            0.0000           2.2000       PFind                   None            0.00    0.00    None
 37.3200         2.4075           0.0000          0.0000            41.67         0.90          0.0400            0.0000           6.6667       PFind                   None            0.00    0.00    None
 39.3800         2.2862           0.0000          0.0000           244.17         5.29          0.0800            0.0000          14.6500       PFind                   None            0.00    0.00    None
 42.7400         2.1139           0.0000          0.0000            30.83         0.67          0.1200            0.0000           1.8500       PFind                   None            0.00    0.00    None
 43.4800         2.0796           0.0000          0.0000           195.00         4.23          0.0200            0.0000          31.2000       PFind                   None            0.00    0.00    None
 46.0200         1.9706           0.0000          0.0000            37.50         0.81          0.0600            0.0000           4.5000       PFind                   None            0.00    0.00    None
 48.1800         1.8872           0.0000          0.0000            30.83         0.67          0.0600            0.0000           4.3167       PFind                   None            0.00    0.00    None
 50.5400         1.8044           0.0000          0.0000           208.33         4.51          0.0400            0.0000          12.5000       PFind                   None            0.00    0.00    None
 51.2000         1.7827           0.0000          0.0000            85.00         1.84          0.0000            0.0000           6.8000       PFind                   None            0.00    0.00    None
 52.4200         1.7440           0.0000          0.0000            39.17         0.85          0.1600            0.0000           0.7833       PFind                   None            0.00    0.00    None
 54.2600         1.6892           0.0000          0.0000            40.00         0.87          0.0600            0.0000           1.6000       PFind                   None            0.00    0.00    None
 55.2800         1.6604           0.0000          0.0000            55.00         1.19          0.1000            0.0000           5.5000       PFind                   None            0.00    0.00    None
 55.8400         1.6451           0.0000          0.0000            85.00         1.84          0.0800            0.0000           5.1000       PFind                   None            0.00    0.00    None
 58.8000         1.5691           0.0000          0.0000            42.50         0.92          0.1000            0.0000           0.0000       PFind                   None            0.00    0.00    None
 60.8000         1.5222           0.0000          0.0000            36.67         0.79          0.1600            0.0000           1.4667       PFind                   None            0.00    0.00    None
 63.9600         1.4544           0.0000          0.0000            68.33         1.48          0.0200            0.0000           8.2000       PFind                   None            0.00    0.00    None
 64.1000         1.4516           0.0000          0.0000            45.00         0.98          0.1200            0.0000           6.3000       PFind                   None            0.00    0.00    None

File: G90_pf_RT.txt
Filename:
	C:\Program Files\Thermo Electron\WinXRD\Datafiles\FIEN2\GEO\G90_RT.pk

File Created:
	February 25, 2021 - 10:06 AM

Specimen Id:
	G90_RT

Specimen Name:

Specimen Description:

Comment:
Scan Type: 2Theta Scan
Start Angle: 3 deg.
Stop Angle: 65 deg.
Num Points: 3101
Step Size: 0.02 deg.
Scan Rate: 1.000000
Scan Mode: Continuous
Wavelength: 1.540562
\Kalpha1: 1.540562	\Kalpha2: 1.544390	\Kbeta: 1.392218

Optics:
		Detector:
			 Type: Fixed Slits
		Tube:
			 Type: Fixed Slits

Datas:
Peaks:

Position        Dspace          ESD(P)          Corr.Fact       Intensity       Rel.Int.        FWHM(L)         ESD(L)          Area            Source                  Curve           Strain  CSize   CSize_Source
[deg]           [A]             [deg]           [deg]           [CPS]           [CPS]           [deg]           [deg]           [deg]           [--]                    [--]            [--]    [--]    [--]
  4.7400        18.6272           0.0000          0.0000            65.00         2.67          0.0000            0.0000           2.6000       PFind                   None            0.00    0.00    None
  5.5600        15.8817           0.0000          0.0000            58.33         2.40          0.1400            0.0000           2.3333       PFind                   None            0.00    0.00    None
  6.4000        13.7990           0.0000          0.0000            40.83         1.68          0.1000            0.0000           3.2667       PFind                   None            0.00    0.00    None
  7.2600        12.1662           0.0000          0.0000            43.33         1.78          0.0600            0.0000           1.7333       PFind                   None            0.00    0.00    None
  8.0000        11.0424           0.0000          0.0000            42.50         1.75          0.0400            0.0000           3.4000       PFind                   None            0.00    0.00    None
  9.1000         9.7099           0.0000          0.0000            40.83         1.68          0.0200            0.0000           1.6333       PFind                   None            0.00    0.00    None
 10.1400         8.7163           0.0000          0.0000            25.00         1.03          0.0400            0.0000           0.0000       PFind                   None            0.00    0.00    None
 11.1200         7.9502           0.0000          0.0000            26.67         1.10          0.1000            0.0000           0.5333       PFind                   None            0.00    0.00    None
 11.9000         7.4308           0.0000          0.0000            38.33         1.58          0.1200            0.0000           3.8333       PFind                   None            0.00    0.00    None
 13.0600         6.7733           0.0000          0.0000            29.17         1.20          0.1400            0.0000           2.3333       PFind                   None            0.00    0.00    None
 13.5400         6.5342           0.0000          0.0000            30.00         1.23          0.1200            0.0000           1.2000       PFind                   None            0.00    0.00    None
 14.3600         6.1629           0.0000          0.0000            25.00         1.03          0.0800            0.0000           3.5000       PFind                   None            0.00    0.00    None
 15.7400         5.6255           0.0000          0.0000            26.67         1.10          0.0800            0.0000           0.0000       PFind                   None            0.00    0.00    None
 16.7800         5.2791           0.0000          0.0000            28.33         1.17          0.0800            0.0000           0.5667       PFind                   None            0.00    0.00    None
 18.4800         4.7972           0.0000          0.0000            42.50         1.75          0.0800            0.0000           0.0000       PFind                   None            0.00    0.00    None
 19.9600         4.4447           0.0000          0.0000            30.00         1.23          0.0200            0.0000           1.2000       PFind                   None            0.00    0.00    None
 21.9600         4.0442           0.0000          0.0000           192.50         7.92          0.0800            0.0000          15.4000       PFind                   None            0.00    0.00    None
 23.4200         3.7953           0.0000          0.0000           205.00         8.44          0.0400            0.0000          20.5000       PFind                   None            0.00    0.00    None
 24.8000         3.5871           0.0000          0.0000            35.00         1.44          0.1200            0.0000           0.7000       PFind                   None            0.00    0.00    None
 26.1000         3.4113           0.0000          0.0000            23.33         0.96          0.0600            0.0000           0.9333       PFind                   None            0.00    0.00    None
 27.8400         3.2019           0.0000          0.0000           758.33        31.21          0.0000            0.0000          91.0000       PFind                   None            0.00    0.00    None
 30.0000         2.9761           0.0000          0.0000            58.33         2.40          0.0200            0.0000           7.0000       PFind                   None            0.00    0.00    None
 31.5000         2.8378           0.0000          0.0000            60.00         2.47          0.0800            0.0000           6.0000       PFind                   None            0.00    0.00    None
 33.7800         2.6512           0.0000          0.0000            25.00         1.03          0.0600            0.0000           2.0000       PFind                   None            0.00    0.00    None
 35.1400         2.5517           0.0000          0.0000            34.17         1.41          0.0400            0.0000           1.3667       PFind                   None            0.00    0.00    None
 36.4600         2.4623           0.0000          0.0000           684.17        28.16          0.0400            0.0000          27.3667       PFind                   None            0.00    0.00    None
 38.7400         2.3225           0.0000          0.0000            35.00         1.44          0.1000            0.0000           0.7000       PFind                   None            0.00    0.00    None
 39.7600         2.2652           0.0000          0.0000            36.67         1.51          0.1400            0.0000           0.7333       PFind                   None            0.00    0.00    None
 41.1800         2.1903           0.0000          0.0000            28.33         1.17          0.0400            0.0000           2.2667       PFind                   None            0.00    0.00    None
 42.7400         2.1139           0.0000          0.0000            26.67         1.10          0.1600            0.0000           1.0667       PFind                   None            0.00    0.00    None
 44.4200         2.0378           0.0000          0.0000           285.00        11.73          0.1200            0.0000          45.6000       PFind                   None            0.00    0.00    None
 47.0600         1.9294           0.0000          0.0000            52.50         2.16          0.0400            0.0000           4.2000       PFind                   None            0.00    0.00    None
 49.1200         1.8532           0.0000          0.0000            30.83         1.27          0.0400            0.0000           1.2333       PFind                   None            0.00    0.00    None
 50.6400         1.8011           0.0000          0.0000            54.17         2.23          0.0000            0.0000           8.6667       PFind                   None            0.00    0.00    None
 52.4200         1.7440           0.0000          0.0000            24.17         0.99          0.0800            0.0000           0.0000       PFind                   None            0.00    0.00    None
 54.2200         1.6903           0.0000          0.0000            25.83         1.06          0.1600            0.0000           1.5500       PFind                   None            0.00    0.00    None
 55.2200         1.6621           0.0000          0.0000            63.33         2.61          0.0400            0.0000           8.8667       PFind                   None            0.00    0.00    None
 58.6000         1.5740           0.0000          0.0000            31.67         1.30          0.1000            0.0000           4.4333       PFind                   None            0.00    0.00    None
 60.0200         1.5401           0.0000          0.0000           155.00         6.38          0.1600            0.0000          21.7000       PFind                   None            0.00    0.00    None
 61.5600         1.5052           0.0000          0.0000            44.17         1.82          0.0200            0.0000           7.0667       PFind                   None            0.00    0.00    None
 64.1000         1.4516           0.0000          0.0000            29.17         1.20          0.0600            0.0000           2.3333       PFind                   None            0.00    0.00    None