Folder: Non-Linear-XRD-Inversion/Generating XRD fingerprints/INPUT/Detrital data (part 5)

File: 4_1_AUG_PF_RT.txt
Filename:
	C:\Program Files\Thermo Electron\WinXRD\Datafiles\FIEN\4_1_AUG_P_RT.pk

File Created:
	March 04, 2019 - 05:05 AM

Specimen Id:
	4.1 AUG P FT

Specimen Name:

Specimen Description:

Comment:
Scan Type: 2Theta Scan
Start Angle: 1 deg.
Stop Angle: 65 deg.
Num Points: 3201
Step Size: 0.02 deg.
Scan Rate: 1.000000
Scan Mode: Continuous
Wavelength: 1.540562
\Kalpha1: 1.540562	\Kalpha2: 1.544390	\Kbeta: 1.392218

Optics:
		Detector:
			 Type: Fixed Slits
		Tube:
			 Type: Fixed Slits

Datas:
Peaks:

Position        Dspace          ESD(P)          Corr.Fact       Intensity       Rel.Int.        FWHM(L)         ESD(L)          Area            Source                  Curve           Strain  CSize   CSize_Source
[deg]           [A]             [deg]           [deg]           [CPS]           [CPS]           [deg]           [deg]           [deg]           [--]                    [--]            [--]    [--]    [--]
  2.8200        31.3038           0.0000          0.0000            50.00         1.56          0.1200            0.0000           6.0000       PFind                   None            0.00    0.00    None
  3.0000        29.4259           0.0000          0.0000            56.67         1.77          0.1600            0.0000           2.2667       PFind                   None            0.00    0.00    None
  3.2000        27.5872           0.0000          0.0000            62.50         1.95          0.0800            0.0000           2.5000       PFind                   None            0.00    0.00    None
  3.5200        25.0800           0.0000          0.0000            52.50         1.64          0.1200            0.0000           2.1000       PFind                   None            0.00    0.00    None
  4.0400        21.8530           0.0000          0.0000            45.00         1.41          0.0400            0.0000           1.8000       PFind                   None            0.00    0.00    None
  4.5400        19.4473           0.0000          0.0000            45.83         1.43          0.1200            0.0000           4.5833       PFind                   None            0.00    0.00    None
  4.8000        18.3945           0.0000          0.0000            49.17         1.54          0.1600            0.0000           0.9833       PFind                   None            0.00    0.00    None
  5.0600        17.4499           0.0000          0.0000            45.00         1.41          0.1200            0.0000           1.8000       PFind                   None            0.00    0.00    None
  5.5400        15.9390           0.0000          0.0000            36.67         1.15          0.0600            0.0000           2.9333       PFind                   None            0.00    0.00    None
  6.2200        14.1979           0.0000          0.0000            60.83         1.90          0.0600            0.0000           7.3000       PFind                   None            0.00    0.00    None
  7.4800        11.8089           0.0000          0.0000            37.50         1.17          0.0800            0.0000           1.5000       PFind                   None            0.00    0.00    None
  9.4000         9.4007           0.0000          0.0000            41.67         1.30          0.1600            0.0000           0.8333       PFind                   None            0.00    0.00    None
 10.4800         8.4342           0.0000          0.0000           236.67         7.39          0.1000            0.0000           9.4667       PFind                   None            0.00    0.00    None
 12.3400         7.1668           0.0000          0.0000            58.33         1.82          0.0600            0.0000           5.8333       PFind                   None            0.00    0.00    None
 13.3600         6.6219           0.0000          0.0000            39.17         1.22          0.0600            0.0000           1.5667       PFind                   None            0.00    0.00    None
 13.8000         6.4117           0.0000          0.0000            47.50         1.48          0.0800            0.0000           2.8500       PFind                   None            0.00    0.00    None
 18.7800         4.7212           0.0000          0.0000            52.50         1.64          0.1400            0.0000           2.1000       PFind                   None            0.00    0.00    None
 20.8400         4.2589           0.0000          0.0000           420.83        13.14          0.0400            0.0000          42.0833       PFind                   None            0.00    0.00    None
 23.5600         3.7730           0.0000          0.0000            96.67         3.02          0.0200            0.0000           9.6667       PFind                   None            0.00    0.00    None
 24.2400         3.6687           0.0000          0.0000            51.67         1.61          0.0800            0.0000           8.2667       PFind                   None            0.00    0.00    None
 25.1400         3.5394           0.0000          0.0000            60.00         1.87          0.0600            0.0000           8.4000       PFind                   None            0.00    0.00    None
 26.6200         3.3459           0.0000          0.0000          3201.67       100.00          0.1200            0.0000         256.1333       PFind                   None            0.00    0.00    None
 27.0600         3.2924           0.0000          0.0000           517.50        16.16          0.0400            0.0000          41.4000       PFind                   None            0.00    0.00    None
 27.9200         3.1929           0.0000          0.0000           242.50         7.57          0.0000            0.0000          33.9500       PFind                   None            0.00    0.00    None
 28.5600         3.1228           0.0000          0.0000            43.33         1.35          0.1600            0.0000           4.3333       PFind                   None            0.00    0.00    None
 29.9600         2.9800           0.0000          0.0000            48.33         1.51          0.0800            0.0000           3.8667       PFind                   None            0.00    0.00    None
 30.2000         2.9569           0.0000          0.0000            42.50         1.33          0.1200            0.0000           6.8000       PFind                   None            0.00    0.00    None
 31.2800         2.8572           0.0000          0.0000            38.33         1.20          0.0800            0.0000           5.3667       PFind                   None            0.00    0.00    None
 34.5000         2.5975           0.0000          0.0000            37.50         1.17          0.0800            0.0000           1.5000       PFind                   None            0.00    0.00    None
 34.9600         2.5644           0.0000          0.0000            43.33         1.35          0.0600            0.0000           4.3333       PFind                   None            0.00    0.00    None
 36.0800         2.4873           0.0000          0.0000            51.67         1.61          0.1200            0.0000           2.0667       PFind                   None            0.00    0.00    None
 37.5000         2.3963           0.0000          0.0000            41.67         1.30          0.0800            0.0000           0.8333       PFind                   None            0.00    0.00    None
 39.4200         2.2839           0.0000          0.0000           140.00         4.37          0.1200            0.0000          14.0000       PFind                   None            0.00    0.00    None
 42.4200         2.1291           0.0000          0.0000           187.50         5.86          0.0200            0.0000          11.2500       PFind                   None            0.00    0.00    None
 43.7800         2.0661           0.0000          0.0000            87.50         2.73          0.0400            0.0000          10.5000       PFind                   None            0.00    0.00    None
 48.7200         1.8675           0.0000          0.0000            49.17         1.54          0.1000            0.0000           0.9833       PFind                   None            0.00    0.00    None
 50.5800         1.8031           0.0000          0.0000            94.17         2.94          0.0200            0.0000          15.0667       PFind                   None            0.00    0.00    None
 51.1200         1.7853           0.0000          0.0000           163.33         5.10          0.0400            0.0000           9.8000       PFind                   None            0.00    0.00    None
 54.8600         1.6721           0.0000          0.0000           146.67         4.58          0.0200            0.0000           8.8000       PFind                   None            0.00    0.00    None
 55.3200         1.6593           0.0000          0.0000            65.83         2.06          0.0600            0.0000           5.2667       PFind                   None            0.00    0.00    None
 58.6600         1.5725           0.0000          0.0000            42.50         1.33          0.1200            0.0000           3.4000       PFind                   None            0.00    0.00    None
 60.1000         1.5382           0.0000          0.0000           243.33         7.60          0.0400            0.0000          19.4667       PFind                   None            0.00    0.00    None
 61.6400         1.5034           0.0000          0.0000            44.17         1.38          0.0200            0.0000           4.4167       PFind                   None            0.00    0.00    None
 63.9800         1.4540           0.0000          0.0000            50.00         1.56          0.1400            0.0000           3.0000       PFind                   None            0.00    0.00    None

File: 4_22_pf_FT.txt
Filename:
	C:\Program Files\Thermo Electron\WinXRD\Datafiles\FIEN2\FIEN\4_22_FT.pk

File Created:
	February 25, 2021 - 10:39 AM

Specimen Id:
	4.22 FILTRE RT

Specimen Name:

Specimen Description:

Comment:
Scan Type: 2Theta Scan
Start Angle: 1 deg.
Stop Angle: 65 deg.
Num Points: 3201
Step Size: 0.02 deg.
Scan Rate: 1.000000
Scan Mode: Continuous
Wavelength: 1.540562
\Kalpha1: 1.540562	\Kalpha2: 1.544390	\Kbeta: 1.392218

Optics:
		Detector:
			 Type: Fixed Slits
		Tube:
			 Type: Fixed Slits

Datas:
Peaks:

Position        Dspace          ESD(P)          Corr.Fact       Intensity       Rel.Int.        FWHM(L)         ESD(L)          Area            Source                  Curve           Strain  CSize   CSize_Source
[deg]           [A]             [deg]           [deg]           [CPS]           [CPS]           [deg]           [deg]           [deg]           [--]                    [--]            [--]    [--]    [--]
 58.6200         1.5735           0.0000          0.0000            25.83         0.59          0.1000            0.0000           3.1000       PFind                   None            0.00    0.00    None
 16.9800         5.2174           0.0000          0.0000            25.83         0.59          0.0800            0.0000           1.5500       PFind                   None            0.00    0.00    None
 58.1600         1.5848           0.0000          0.0000            25.83         0.59          0.0800            0.0000           2.5833       PFind                   None            0.00    0.00    None
 46.3000         1.9593           0.0000          0.0000            26.67         0.61          0.0000            0.0000           0.5333       PFind                   None            0.00    0.00    None
 10.7200         8.2459           0.0000          0.0000            27.50         0.63          0.0000            0.0000           0.0000       PFind                   None            0.00    0.00    None
 16.5200         5.3616           0.0000          0.0000            27.50         0.63          0.0800            0.0000           0.0000       PFind                   None            0.00    0.00    None
 48.1400         1.8886           0.0000          0.0000            28.33         0.64          0.0800            0.0000           1.1333       PFind                   None            0.00    0.00    None
 42.9200         2.1054           0.0000          0.0000            30.00         0.68          0.0600            0.0000           1.2000       PFind                   None            0.00    0.00    None
 11.5400         7.6618           0.0000          0.0000            31.67         0.72          0.1000            0.0000           0.6333       PFind                   None            0.00    0.00    None
 22.2800         3.9868           0.0000          0.0000            31.67         0.72          0.1600            0.0000           5.0667       PFind                   None            0.00    0.00    None
 50.5000         1.8058           0.0000          0.0000            32.50         0.74          0.0600            0.0000           5.2000       PFind                   None            0.00    0.00    None
 33.3200         2.6868           0.0000          0.0000            34.17         0.78          0.0400            0.0000           0.6833       PFind                   None            0.00    0.00    None
 38.6400         2.3282           0.0000          0.0000            36.67         0.83          0.0800            0.0000           2.9333       PFind                   None            0.00    0.00    None
  8.1600        10.8263           0.0000          0.0000            39.17         0.89          0.1000            0.0000           3.1333       PFind                   None            0.00    0.00    None
  6.6400        13.3008           0.0000          0.0000            40.00         0.91          0.1200            0.0000           1.6000       PFind                   None            0.00    0.00    None
 55.2200         1.6621           0.0000          0.0000            40.83         0.93          0.1400            0.0000           1.6333       PFind                   None            0.00    0.00    None
 53.7800         1.7031           0.0000          0.0000            44.17         1.00          0.0400            0.0000           1.7667       PFind                   None            0.00    0.00    None
  6.7400        13.1037           0.0000          0.0000            45.83         1.04          0.1400            0.0000           1.8333       PFind                   None            0.00    0.00    None
 10.1400         8.7163           0.0000          0.0000            48.33         1.10          0.1200            0.0000           0.9667       PFind                   None            0.00    0.00    None
  5.2600        16.7868           0.0000          0.0000            51.67         1.18          0.1000            0.0000           5.1667       PFind                   None            0.00    0.00    None
 13.8600         6.3841           0.0000          0.0000            56.67         1.29          0.1000            0.0000           1.1333       PFind                   None            0.00    0.00    None
  9.7200         9.0919           0.0000          0.0000            58.33         1.33          0.1200            0.0000           1.1667       PFind                   None            0.00    0.00    None
  4.8000        18.3945           0.0000          0.0000            62.50         1.42          0.1200            0.0000           1.2500       PFind                   None            0.00    0.00    None
 18.2800         4.8492           0.0000          0.0000            65.00         1.48          0.0800            0.0000          10.4000       PFind                   None            0.00    0.00    None
 35.4400         2.5308           0.0000          0.0000            66.67         1.52          0.1200            0.0000           8.0000       PFind                   None            0.00    0.00    None
 31.1400         2.8697           0.0000          0.0000            69.17         1.57          0.1200            0.0000           9.6833       PFind                   None            0.00    0.00    None
  5.3600        16.4739           0.0000          0.0000            70.83         1.61          0.0800            0.0000           0.0000       PFind                   None            0.00    0.00    None
 10.3600         8.5317           0.0000          0.0000            75.00         1.71          0.1200            0.0000           6.0000       PFind                   None            0.00    0.00    None
 13.5600         6.5246           0.0000          0.0000            80.00         1.82          0.0000            0.0000           4.8000       PFind                   None            0.00    0.00    None
 37.3400         2.4062           0.0000          0.0000            85.00         1.93          0.1000            0.0000          10.2000       PFind                   None            0.00    0.00    None
 22.4200         3.9622           0.0000          0.0000            87.50         1.99          0.0200            0.0000           8.7500       PFind                   None            0.00    0.00    None
 36.0000         2.4927           0.0000          0.0000           100.83         2.29          0.0400            0.0000          12.1000       PFind                   None            0.00    0.00    None
  3.0400        29.0388           0.0000          0.0000           105.00         2.39          0.1000            0.0000           6.3000       PFind                   None            0.00    0.00    None
 54.7200         1.6761           0.0000          0.0000           126.67         2.88          0.0400            0.0000          10.1333       PFind                   None            0.00    0.00    None
 32.9800         2.7137           0.0000          0.0000           139.17         3.17          0.0800            0.0000           8.3500       PFind                   None            0.00    0.00    None
 24.4600         3.6362           0.0000          0.0000           147.50         3.36          0.0200            0.0000          23.6000       PFind                   None            0.00    0.00    None
 34.9200         2.5673           0.0000          0.0000           161.67         3.68          0.1200            0.0000          16.1667       PFind                   None            0.00    0.00    None
 30.6400         2.9154           0.0000          0.0000           196.67         4.47          0.0600            0.0000          19.6667       PFind                   None            0.00    0.00    None
 13.7000         6.4583           0.0000          0.0000           214.17         4.87          0.0000            0.0000          17.1333       PFind                   None            0.00    0.00    None
 36.4200         2.4649           0.0000          0.0000           225.00         5.12          0.0400            0.0000          18.0000       PFind                   None            0.00    0.00    None
 17.6800         5.0124           0.0000          0.0000           405.00         9.21          0.1600            0.0000          48.6000       PFind                   None            0.00    0.00    None
 26.2800         3.3884           0.0000          0.0000           479.17        10.90          0.0600            0.0000          47.9167       PFind                   None            0.00    0.00    None
 45.4200         1.9952           0.0000          0.0000           550.00        12.51          0.0400            0.0000          88.0000       PFind                   None            0.00    0.00    None
 64.5000         1.4435           0.0000          0.0000           612.50        13.93          0.1000            0.0000          36.7500       PFind                   None            0.00    0.00    None
 29.7200         3.0035           0.0000          0.0000           848.33        19.30          0.1600            0.0000          84.8333       PFind                   None            0.00    0.00    None
 64.3200         1.4471           0.0000          0.0000          1122.50        25.54          0.1400            0.0000          67.3500       PFind                   None            0.00    0.00    None
 37.9800         2.3672           0.0000          0.0000          2820.00        64.15          0.1200            0.0000         225.6000       PFind                   None            0.00    0.00    None
 26.5200         3.3582           0.0000          0.0000          4395.83       100.00          0.0400            0.0000         527.5000       PFind                   None            0.00    0.00    None