Folder: Non-Linear-XRD-Inversion/Generating XRD fingerprints/INPUT/Detrital data (part 47)

File: G76_pf_RT.txt
Filename:
	C:\Program Files\Thermo Electron\WinXRD\Datafiles\FIEN2\GEO\G76_RT.pk

File Created:
	February 25, 2021 - 09:59 AM

Specimen Id:
	G76_RT

Specimen Name:

Specimen Description:

Comment:
Scan Type: 2Theta Scan
Start Angle: 3 deg.
Stop Angle: 65 deg.
Num Points: 3101
Step Size: 0.02 deg.
Scan Rate: 1.000000
Scan Mode: Continuous
Wavelength: 1.540562
\Kalpha1: 1.540562	\Kalpha2: 1.544390	\Kbeta: 1.392218

Optics:
		Detector:
			 Type: Fixed Slits
		Tube:
			 Type: Fixed Slits

Datas:
Peaks:

Position        Dspace          ESD(P)          Corr.Fact       Intensity       Rel.Int.        FWHM(L)         ESD(L)          Area            Source                  Curve           Strain  CSize   CSize_Source
[deg]           [A]             [deg]           [deg]           [CPS]           [CPS]           [deg]           [deg]           [deg]           [--]                    [--]            [--]    [--]    [--]
  4.7000        18.7856           0.0000          0.0000            42.50         2.03          0.0400            0.0000           3.4000       PFind                   None            0.00    0.00    None
  5.2800        16.7233           0.0000          0.0000            50.00         2.39          0.1400            0.0000           4.0000       PFind                   None            0.00    0.00    None
  6.2000        14.2437           0.0000          0.0000           293.33        14.00          0.0600            0.0000          35.2000       PFind                   None            0.00    0.00    None
  7.1000        12.4400           0.0000          0.0000            37.50         1.79          0.1600            0.0000           2.2500       PFind                   None            0.00    0.00    None
  8.1400        10.8528           0.0000          0.0000            36.67         1.75          0.1000            0.0000           1.4667       PFind                   None            0.00    0.00    None
  9.1800         9.6255           0.0000          0.0000           183.33         8.75          0.1000            0.0000          11.0000       PFind                   None            0.00    0.00    None
 10.0400         8.8029           0.0000          0.0000            26.67         1.27          0.1000            0.0000           2.1333       PFind                   None            0.00    0.00    None
 11.0400         8.0076           0.0000          0.0000            33.33         1.59          0.1600            0.0000           2.0000       PFind                   None            0.00    0.00    None
 12.4800         7.0867           0.0000          0.0000           530.83        25.33          0.0000            0.0000          74.3167       PFind                   None            0.00    0.00    None
 13.4400         6.5826           0.0000          0.0000            28.33         1.35          0.1200            0.0000           0.5667       PFind                   None            0.00    0.00    None
 14.4400         6.1289           0.0000          0.0000            30.00         1.43          0.0400            0.0000           0.6000       PFind                   None            0.00    0.00    None
 16.0400         5.5210           0.0000          0.0000            25.00         1.19          0.0400            0.0000           0.5000       PFind                   None            0.00    0.00    None
 17.4400         5.0808           0.0000          0.0000            32.50         1.55          0.1200            0.0000           1.3000       PFind                   None            0.00    0.00    None
 18.9800         4.6719           0.0000          0.0000            45.83         2.19          0.1600            0.0000           1.8333       PFind                   None            0.00    0.00    None
 19.9200         4.4535           0.0000          0.0000            55.00         2.62          0.0600            0.0000           6.6000       PFind                   None            0.00    0.00    None
 22.0600         4.0261           0.0000          0.0000           233.33        11.13          0.0600            0.0000          14.0000       PFind                   None            0.00    0.00    None
 23.4400         3.7921           0.0000          0.0000            28.33         1.35          0.0800            0.0000           0.5667       PFind                   None            0.00    0.00    None
 24.6400         3.6100           0.0000          0.0000           743.33        35.47          0.1000            0.0000         104.0667       PFind                   None            0.00    0.00    None
 26.1800         3.4011           0.0000          0.0000            30.83         1.47          0.0200            0.0000           0.6167       PFind                   None            0.00    0.00    None
 27.5200         3.2384           0.0000          0.0000           206.67         9.86          0.0800            0.0000          20.6667       PFind                   None            0.00    0.00    None
 28.6400         3.1143           0.0000          0.0000           140.83         6.72          0.0800            0.0000          22.5333       PFind                   None            0.00    0.00    None
 30.4400         2.9341           0.0000          0.0000           248.33        11.85          0.0600            0.0000           9.9333       PFind                   None            0.00    0.00    None
 32.0400         2.7911           0.0000          0.0000            46.67         2.23          0.0200            0.0000           6.5333       PFind                   None            0.00    0.00    None
 34.2600         2.6152           0.0000          0.0000           107.50         5.13          0.0600            0.0000           4.3000       PFind                   None            0.00    0.00    None
 36.1400         2.4833           0.0000          0.0000            51.67         2.47          0.0600            0.0000           6.2000       PFind                   None            0.00    0.00    None
 37.4000         2.4025           0.0000          0.0000            54.17         2.58          0.0000            0.0000           8.6667       PFind                   None            0.00    0.00    None
 39.9400         2.2554           0.0000          0.0000            33.33         1.59          0.1200            0.0000           0.6667       PFind                   None            0.00    0.00    None
 41.7000         2.1642           0.0000          0.0000            69.17         3.30          0.1200            0.0000          11.0667       PFind                   None            0.00    0.00    None
 43.5200         2.0778           0.0000          0.0000           160.00         7.63          0.0600            0.0000          25.6000       PFind                   None            0.00    0.00    None
 45.5600         1.9894           0.0000          0.0000           234.17        11.17          0.0800            0.0000          37.4667       PFind                   None            0.00    0.00    None
 48.1800         1.8872           0.0000          0.0000            36.67         1.75          0.1600            0.0000           3.6667       PFind                   None            0.00    0.00    None
 49.5800         1.8371           0.0000          0.0000            66.67         3.18          0.0400            0.0000           2.6667       PFind                   None            0.00    0.00    None
 50.7800         1.7965           0.0000          0.0000            26.67         1.27          0.1000            0.0000           4.2667       PFind                   None            0.00    0.00    None
 53.0000         1.7263           0.0000          0.0000            40.83         1.95          0.0200            0.0000           0.0000       PFind                   None            0.00    0.00    None
 58.5400         1.5755           0.0000          0.0000            34.17         1.63          0.0200            0.0000           0.0000       PFind                   None            0.00    0.00    None
 59.4800         1.5528           0.0000          0.0000            27.50         1.31          0.1000            0.0000           2.7500       PFind                   None            0.00    0.00    None
 60.9600         1.5186           0.0000          0.0000            42.50         2.03          0.1600            0.0000           4.2500       PFind                   None            0.00    0.00    None
 61.7000         1.5021           0.0000          0.0000            36.67         1.75          0.1600            0.0000           2.9333       PFind                   None            0.00    0.00    None
 64.0600         1.4524           0.0000          0.0000            40.83         1.95          0.1400            0.0000           1.6333       PFind                   None            0.00    0.00    None
 64.2200         1.4491           0.0000          0.0000            30.83         1.47          0.1200            0.0000           1.2333       PFind                   None            0.00    0.00    None

File: G77_pf_RT.txt
Filename:
	C:\Program Files\Thermo Electron\WinXRD\Datafiles\FIEN2\GEO\G77_RT.pk

File Created:
	February 25, 2021 - 10:00 AM

Specimen Id:
	G77_RT

Specimen Name:

Specimen Description:

Comment:
Scan Type: 2Theta Scan
Start Angle: 3 deg.
Stop Angle: 65 deg.
Num Points: 3101
Step Size: 0.02 deg.
Scan Rate: 1.000000
Scan Mode: Continuous
Wavelength: 1.540562
\Kalpha1: 1.540562	\Kalpha2: 1.544390	\Kbeta: 1.392218

Optics:
		Detector:
			 Type: Fixed Slits
		Tube:
			 Type: Fixed Slits

Datas:
Peaks:

Position        Dspace          ESD(P)          Corr.Fact       Intensity       Rel.Int.        FWHM(L)         ESD(L)          Area            Source                  Curve           Strain  CSize   CSize_Source
[deg]           [A]             [deg]           [deg]           [CPS]           [CPS]           [deg]           [deg]           [deg]           [--]                    [--]            [--]    [--]    [--]
  4.9000        18.0193           0.0000          0.0000            41.67         1.87          0.1000            0.0000           6.6667       PFind                   None            0.00    0.00    None
  5.2800        16.7233           0.0000          0.0000            47.50         2.13          0.1000            0.0000           4.7500       PFind                   None            0.00    0.00    None
  5.7400        15.3841           0.0000          0.0000            54.17         2.43          0.0000            0.0000           0.0000       PFind                   None            0.00    0.00    None
  6.5600        13.4628           0.0000          0.0000            32.50         1.46          0.1200            0.0000           4.5500       PFind                   None            0.00    0.00    None
  7.3800        11.9687           0.0000          0.0000            35.00         1.57          0.1400            0.0000           2.1000       PFind                   None            0.00    0.00    None
  8.3000        10.6440           0.0000          0.0000            45.83         2.06          0.0800            0.0000           6.4167       PFind                   None            0.00    0.00    None
  9.2800         9.5220           0.0000          0.0000            35.83         1.61          0.0400            0.0000           0.7167       PFind                   None            0.00    0.00    None
 10.1000         8.7507           0.0000          0.0000            31.67         1.42          0.0800            0.0000           0.0000       PFind                   None            0.00    0.00    None
 11.5400         7.6618           0.0000          0.0000            32.50         1.46          0.1600            0.0000           0.6500       PFind                   None            0.00    0.00    None
 12.8200         6.8995           0.0000          0.0000            35.83         1.61          0.0800            0.0000           0.7167       PFind                   None            0.00    0.00    None
 13.7800         6.4210           0.0000          0.0000            69.17         3.11          0.0800            0.0000           5.5333       PFind                   None            0.00    0.00    None
 17.7600         4.9900           0.0000          0.0000           141.67         6.36          0.0400            0.0000          17.0000       PFind                   None            0.00    0.00    None
 18.7000         4.7412           0.0000          0.0000            69.17         3.11          0.0600            0.0000           5.5333       PFind                   None            0.00    0.00    None
 19.7600         4.4892           0.0000          0.0000            40.83         1.83          0.1000            0.0000           4.9000       PFind                   None            0.00    0.00    None
 22.8600         3.8870           0.0000          0.0000            43.33         1.95          0.0000            0.0000           3.4667       PFind                   None            0.00    0.00    None
 23.6800         3.7542           0.0000          0.0000            44.17         1.98          0.1600            0.0000           4.4167       PFind                   None            0.00    0.00    None
 25.0600         3.5505           0.0000          0.0000           143.33         6.43          0.0200            0.0000          17.2000       PFind                   None            0.00    0.00    None
 26.8000         3.3238           0.0000          0.0000           416.67        18.71          0.1200            0.0000          66.6667       PFind                   None            0.00    0.00    None
 28.5600         3.1228           0.0000          0.0000            69.17         3.11          0.1200            0.0000           6.9167       PFind                   None            0.00    0.00    None
 30.0200         2.9742           0.0000          0.0000            82.50         3.70          0.1000            0.0000           9.9000       PFind                   None            0.00    0.00    None
 31.1600         2.8679           0.0000          0.0000            64.17         2.88          0.0600            0.0000          10.2667       PFind                   None            0.00    0.00    None
 32.1800         2.7793           0.0000          0.0000            95.83         4.30          0.0800            0.0000          11.5000       PFind                   None            0.00    0.00    None
 34.4200         2.6034           0.0000          0.0000            48.33         2.17          0.0600            0.0000           6.7667       PFind                   None            0.00    0.00    None
 35.5200         2.5253           0.0000          0.0000            99.17         4.45          0.1000            0.0000          13.8833       PFind                   None            0.00    0.00    None
 37.3800         2.4038           0.0000          0.0000            42.50         1.91          0.0600            0.0000           6.8000       PFind                   None            0.00    0.00    None
 38.6400         2.3282           0.0000          0.0000            36.67         1.65          0.1000            0.0000           0.0000       PFind                   None            0.00    0.00    None
 40.2000         2.2414           0.0000          0.0000            97.50         4.38          0.0400            0.0000           5.8500       PFind                   None            0.00    0.00    None
 41.6600         2.1662           0.0000          0.0000            47.50         2.13          0.1000            0.0000           4.7500       PFind                   None            0.00    0.00    None
 43.6400         2.0724           0.0000          0.0000            68.33         3.07          0.0600            0.0000          10.9333       PFind                   None            0.00    0.00    None
 44.4400         2.0369           0.0000          0.0000           212.50         9.54          0.0400            0.0000          34.0000       PFind                   None            0.00    0.00    None
 45.6800         1.9844           0.0000          0.0000           190.00         8.53          0.0600            0.0000          15.2000       PFind                   None            0.00    0.00    None
 49.8200         1.8288           0.0000          0.0000            57.50         2.58          0.1400            0.0000           8.0500       PFind                   None            0.00    0.00    None
 50.6400         1.8011           0.0000          0.0000            38.33         1.72          0.1400            0.0000           4.6000       PFind                   None            0.00    0.00    None
 52.6400         1.7373           0.0000          0.0000            33.33         1.50          0.0600            0.0000           2.6667       PFind                   None            0.00    0.00    None
 54.9200         1.6704           0.0000          0.0000            76.67         3.44          0.0800            0.0000           6.1333       PFind                   None            0.00    0.00    None
 55.6800         1.6494           0.0000          0.0000            33.33         1.50          0.0600            0.0000           4.6667       PFind                   None            0.00    0.00    None
 58.4800         1.5769           0.0000          0.0000           172.50         7.74          0.0000            0.0000          10.3500       PFind                   None            0.00    0.00    None
 59.8800         1.5434           0.0000          0.0000           312.50        14.03          0.1400            0.0000          18.7500       PFind                   None            0.00    0.00    None
 60.3800         1.5318           0.0000          0.0000            45.00         2.02          0.0200            0.0000           5.4000       PFind                   None            0.00    0.00    None
 61.5000         1.5065           0.0000          0.0000            43.33         1.95          0.1600            0.0000           3.4667       PFind                   None            0.00    0.00    None
 61.9800         1.4960           0.0000          0.0000            40.83         1.83          0.1600            0.0000           6.5333       PFind                   None            0.00    0.00    None
 63.4200         1.4655           0.0000          0.0000            32.50         1.46          0.0800            0.0000           1.9500       PFind                   None            0.00    0.00    None
 64.1000         1.4516           0.0000          0.0000            49.17         2.21          0.0400            0.0000           3.9333       PFind                   None            0.00    0.00    None