Folder: Non-Linear-XRD-Inversion/Generating XRD fingerprints/INPUT/Detrital data (part 41)

File: G59_pf_RT.txt
Filename:
	C:\Program Files\Thermo Electron\WinXRD\Datafiles\FIEN2\GEO\G59_RT.pk

File Created:
	February 25, 2021 - 09:51 AM

Specimen Id:
	G59_RT

Specimen Name:

Specimen Description:

Comment:
Scan Type: 2Theta Scan
Start Angle: 3 deg.
Stop Angle: 65 deg.
Num Points: 3101
Step Size: 0.02 deg.
Scan Rate: 1.000000
Scan Mode: Continuous
Wavelength: 1.540562
\Kalpha1: 1.540562	\Kalpha2: 1.544390	\Kbeta: 1.392218

Optics:
		Detector:
			 Type: Fixed Slits
		Tube:
			 Type: Fixed Slits

Datas:
Peaks:

Position        Dspace          ESD(P)          Corr.Fact       Intensity       Rel.Int.        FWHM(L)         ESD(L)          Area            Source                  Curve           Strain  CSize   CSize_Source
[deg]           [A]             [deg]           [deg]           [CPS]           [CPS]           [deg]           [deg]           [deg]           [--]                    [--]            [--]    [--]    [--]
  4.8600        18.1675           0.0000          0.0000            61.67         4.36          0.0200            0.0000           6.1667       PFind                   None            0.00    0.00    None
  5.5600        15.8817           0.0000          0.0000            48.33         3.42          0.1000            0.0000           1.9333       PFind                   None            0.00    0.00    None
  6.3600        13.8857           0.0000          0.0000            39.17         2.77          0.0800            0.0000           5.4833       PFind                   None            0.00    0.00    None
  7.0600        12.5104           0.0000          0.0000            48.33         3.42          0.0600            0.0000           4.8333       PFind                   None            0.00    0.00    None
  7.8600        11.2388           0.0000          0.0000            40.83         2.89          0.1400            0.0000           3.2667       PFind                   None            0.00    0.00    None
  8.8000        10.0403           0.0000          0.0000           230.00        16.26          0.1200            0.0000          13.8000       PFind                   None            0.00    0.00    None
  9.6800         9.1294           0.0000          0.0000            35.83         2.53          0.0800            0.0000           2.8667       PFind                   None            0.00    0.00    None
 10.4800         8.4342           0.0000          0.0000           170.00        12.02          0.1000            0.0000          10.2000       PFind                   None            0.00    0.00    None
 11.3000         7.8240           0.0000          0.0000            25.83         1.83          0.0800            0.0000           1.0333       PFind                   None            0.00    0.00    None
 12.4000         7.1323           0.0000          0.0000           116.67         8.25          0.0800            0.0000          11.6667       PFind                   None            0.00    0.00    None
 13.8000         6.4117           0.0000          0.0000            40.83         2.89          0.1200            0.0000           3.2667       PFind                   None            0.00    0.00    None
 14.8600         5.9566           0.0000          0.0000            39.17         2.77          0.0800            0.0000           0.7833       PFind                   None            0.00    0.00    None
 15.7400         5.6255           0.0000          0.0000            31.67         2.24          0.0400            0.0000           1.2667       PFind                   None            0.00    0.00    None
 16.8000         5.2729           0.0000          0.0000            27.50         1.94          0.0400            0.0000           0.0000       PFind                   None            0.00    0.00    None
 18.4800         4.7972           0.0000          0.0000            28.33         2.00          0.0400            0.0000           1.7000       PFind                   None            0.00    0.00    None
 19.5200         4.5439           0.0000          0.0000            30.83         2.18          0.1000            0.0000           1.2333       PFind                   None            0.00    0.00    None
 21.0800         4.2110           0.0000          0.0000            30.00         2.12          0.1600            0.0000           4.2000       PFind                   None            0.00    0.00    None
 22.9400         3.8736           0.0000          0.0000            36.67         2.59          0.1400            0.0000           4.4000       PFind                   None            0.00    0.00    None
 24.7200         3.5985           0.0000          0.0000            37.50         2.65          0.0400            0.0000           0.0000       PFind                   None            0.00    0.00    None
 25.5800         3.4795           0.0000          0.0000            59.17         4.18          0.0400            0.0000           8.2833       PFind                   None            0.00    0.00    None
 27.1800         3.2782           0.0000          0.0000            36.67         2.59          0.1600            0.0000           0.0000       PFind                   None            0.00    0.00    None
 28.5000         3.1293           0.0000          0.0000            70.00         4.95          0.0400            0.0000           8.4000       PFind                   None            0.00    0.00    None
 30.4200         2.9360           0.0000          0.0000            55.00         3.89          0.0400            0.0000           6.6000       PFind                   None            0.00    0.00    None
 32.0400         2.7911           0.0000          0.0000            45.00         3.18          0.1200            0.0000           4.5000       PFind                   None            0.00    0.00    None
 34.3600         2.6078           0.0000          0.0000            44.17         3.12          0.0400            0.0000           0.8833       PFind                   None            0.00    0.00    None
 35.5000         2.5266           0.0000          0.0000            94.17         6.66          0.0800            0.0000          13.1833       PFind                   None            0.00    0.00    None
 37.0400         2.4250           0.0000          0.0000            25.83         1.83          0.0400            0.0000           1.5500       PFind                   None            0.00    0.00    None
 37.7800         2.3792           0.0000          0.0000            25.00         1.77          0.1200            0.0000           1.0000       PFind                   None            0.00    0.00    None
 39.7800         2.2641           0.0000          0.0000            30.00         2.12          0.1000            0.0000           1.2000       PFind                   None            0.00    0.00    None
 42.3600         2.1320           0.0000          0.0000           116.67         8.25          0.0800            0.0000           9.3333       PFind                   None            0.00    0.00    None
 44.8600         2.0188           0.0000          0.0000            40.00         2.83          0.1400            0.0000           3.2000       PFind                   None            0.00    0.00    None
 45.7000         1.9836           0.0000          0.0000           105.83         7.48          0.0800            0.0000          10.5833       PFind                   None            0.00    0.00    None
 48.3400         1.8813           0.0000          0.0000            24.17         1.71          0.0000            0.0000           1.4500       PFind                   None            0.00    0.00    None
 50.6400         1.8011           0.0000          0.0000            59.17         4.18          0.0200            0.0000           8.2833       PFind                   None            0.00    0.00    None
 52.0600         1.7553           0.0000          0.0000           110.83         7.84          0.0800            0.0000           4.4333       PFind                   None            0.00    0.00    None
 54.8800         1.6715           0.0000          0.0000            45.00         3.18          0.0400            0.0000           2.7000       PFind                   None            0.00    0.00    None
 57.0000         1.6143           0.0000          0.0000            47.50         3.36          0.0400            0.0000           3.8000       PFind                   None            0.00    0.00    None
 59.8600         1.5438           0.0000          0.0000           188.33        13.32          0.0200            0.0000          15.0667       PFind                   None            0.00    0.00    None
 61.4800         1.5070           0.0000          0.0000            46.67         3.30          0.1000            0.0000           7.4667       PFind                   None            0.00    0.00    None
 63.9600         1.4544           0.0000          0.0000            60.00         4.24          0.0800            0.0000           6.0000       PFind                   None            0.00    0.00    None
 64.1000         1.4516           0.0000          0.0000            29.17         2.06          0.1000            0.0000           4.0833       PFind                   None            0.00    0.00    None

File: G60_pf_RT.txt
Filename:
	C:\Program Files\Thermo Electron\WinXRD\Datafiles\FIEN2\GEO\G60_RT.pk

File Created:
	February 25, 2021 - 09:52 AM

Specimen Id:
	G60_RT

Specimen Name:

Specimen Description:

Comment:
Scan Type: 2Theta Scan
Start Angle: 3 deg.
Stop Angle: 65 deg.
Num Points: 3101
Step Size: 0.02 deg.
Scan Rate: 1.000000
Scan Mode: Continuous
Wavelength: 1.540562
\Kalpha1: 1.540562	\Kalpha2: 1.544390	\Kbeta: 1.392218

Optics:
		Detector:
			 Type: Fixed Slits
		Tube:
			 Type: Fixed Slits

Datas:
Peaks:

Position        Dspace          ESD(P)          Corr.Fact       Intensity       Rel.Int.        FWHM(L)         ESD(L)          Area            Source                  Curve           Strain  CSize   CSize_Source
[deg]           [A]             [deg]           [deg]           [CPS]           [CPS]           [deg]           [deg]           [deg]           [--]                    [--]            [--]    [--]    [--]
  4.7000        18.7856           0.0000          0.0000            60.00         2.16          0.1000            0.0000           3.6000       PFind                   None            0.00    0.00    None
  5.2800        16.7233           0.0000          0.0000            43.33         1.56          0.0000            0.0000           5.2000       PFind                   None            0.00    0.00    None
  5.8400        15.1209           0.0000          0.0000            47.50         1.71          0.0600            0.0000           3.8000       PFind                   None            0.00    0.00    None
  6.5800        13.4219           0.0000          0.0000            57.50         2.07          0.1600            0.0000           3.4500       PFind                   None            0.00    0.00    None
  7.2800        12.1328           0.0000          0.0000            51.67         1.86          0.1000            0.0000           3.1000       PFind                   None            0.00    0.00    None
  7.9800        11.0701           0.0000          0.0000            37.50         1.35          0.0800            0.0000           2.2500       PFind                   None            0.00    0.00    None
  8.7800        10.0631           0.0000          0.0000           358.33        12.92          0.1200            0.0000          35.8333       PFind                   None            0.00    0.00    None
  9.5400         9.2631           0.0000          0.0000            44.17         1.59          0.1000            0.0000           3.5333       PFind                   None            0.00    0.00    None
 10.4400         8.4665           0.0000          0.0000            64.17         2.31          0.0800            0.0000           3.8500       PFind                   None            0.00    0.00    None
 11.4200         7.7420           0.0000          0.0000            31.67         1.14          0.1600            0.0000           0.6333       PFind                   None            0.00    0.00    None
 12.4200         7.1208           0.0000          0.0000           225.83         8.14          0.0800            0.0000          22.5833       PFind                   None            0.00    0.00    None
 13.5600         6.5246           0.0000          0.0000            41.67         1.50          0.1200            0.0000           1.6667       PFind                   None            0.00    0.00    None
 16.4400         5.3875           0.0000          0.0000            27.50         0.99          0.0800            0.0000           0.0000       PFind                   None            0.00    0.00    None
 17.9200         4.9458           0.0000          0.0000            31.67         1.14          0.0800            0.0000           0.0000       PFind                   None            0.00    0.00    None
 19.1000         4.6428           0.0000          0.0000            28.33         1.02          0.0000            0.0000           2.8333       PFind                   None            0.00    0.00    None
 20.2600         4.3795           0.0000          0.0000            32.50         1.17          0.0400            0.0000           0.6500       PFind                   None            0.00    0.00    None
 21.9800         4.0405           0.0000          0.0000           122.50         4.42          0.0800            0.0000          12.2500       PFind                   None            0.00    0.00    None
 23.4400         3.7921           0.0000          0.0000           105.00         3.79          0.0400            0.0000          12.6000       PFind                   None            0.00    0.00    None
 24.5000         3.6304           0.0000          0.0000           118.33         4.27          0.0800            0.0000          14.2000       PFind                   None            0.00    0.00    None
 26.5400         3.3558           0.0000          0.0000          2773.33       100.00          0.0600            0.0000         277.3333       PFind                   None            0.00    0.00    None
 27.8400         3.2019           0.0000          0.0000           364.17        13.13          0.0400            0.0000          50.9833       PFind                   None            0.00    0.00    None
 28.5200         3.1271           0.0000          0.0000            63.33         2.28          0.1000            0.0000           2.5333       PFind                   None            0.00    0.00    None
 30.1000         2.9665           0.0000          0.0000            47.50         1.71          0.1000            0.0000           2.8500       PFind                   None            0.00    0.00    None
 31.1600         2.8679           0.0000          0.0000            85.00         3.06          0.0400            0.0000          11.9000       PFind                   None            0.00    0.00    None
 32.0000         2.7945           0.0000          0.0000            58.33         2.10          0.1200            0.0000           5.8333       PFind                   None            0.00    0.00    None
 33.0000         2.7121           0.0000          0.0000            41.67         1.50          0.0800            0.0000           1.6667       PFind                   None            0.00    0.00    None
 34.5000         2.5975           0.0000          0.0000            72.50         2.61          0.1000            0.0000          10.1500       PFind                   None            0.00    0.00    None
 35.4000         2.5335           0.0000          0.0000           125.00         4.51          0.0600            0.0000          12.5000       PFind                   None            0.00    0.00    None
 36.8400         2.4378           0.0000          0.0000            35.83         1.29          0.0400            0.0000           0.0000       PFind                   None            0.00    0.00    None
 37.6600         2.3865           0.0000          0.0000            73.33         2.64          0.0800            0.0000           2.9333       PFind                   None            0.00    0.00    None
 41.7400         2.1622           0.0000          0.0000            54.17         1.95          0.0400            0.0000           6.5000       PFind                   None            0.00    0.00    None
 43.6400         2.0724           0.0000          0.0000            61.67         2.22          0.1000            0.0000           9.8667       PFind                   None            0.00    0.00    None
 45.0200         2.0120           0.0000          0.0000            49.17         1.77          0.1400            0.0000           7.8667       PFind                   None            0.00    0.00    None
 45.7200         1.9828           0.0000          0.0000           200.00         7.21          0.0800            0.0000          16.0000       PFind                   None            0.00    0.00    None
 48.0400         1.8923           0.0000          0.0000            43.33         1.56          0.1200            0.0000           5.2000       PFind                   None            0.00    0.00    None
 50.5200         1.8051           0.0000          0.0000            60.00         2.16          0.0800            0.0000           8.4000       PFind                   None            0.00    0.00    None
 51.1600         1.7840           0.0000          0.0000            38.33         1.38          0.1600            0.0000           4.6000       PFind                   None            0.00    0.00    None
 53.1400         1.7221           0.0000          0.0000            28.33         1.02          0.0800            0.0000           2.8333       PFind                   None            0.00    0.00    None
 55.2200         1.6621           0.0000          0.0000            48.33         1.74          0.1000            0.0000           3.8667       PFind                   None            0.00    0.00    None
 56.8000         1.6195           0.0000          0.0000            42.50         1.53          0.1400            0.0000           1.7000       PFind                   None            0.00    0.00    None
 58.9200         1.5662           0.0000          0.0000            70.83         2.55          0.1000            0.0000           2.8333       PFind                   None            0.00    0.00    None
 59.8800         1.5434           0.0000          0.0000           348.33        12.56          0.0600            0.0000          27.8667       PFind                   None            0.00    0.00    None
 61.2200         1.5128           0.0000          0.0000            31.67         1.14          0.0600            0.0000           0.0000       PFind                   None            0.00    0.00    None
 61.8000         1.4999           0.0000          0.0000            32.50         1.17          0.0000            0.0000           1.3000       PFind                   None            0.00    0.00    None
 63.9400         1.4548           0.0000          0.0000            80.00         2.88          0.0000            0.0000           6.4000       PFind                   None            0.00    0.00    None
 64.1200         1.4512           0.0000          0.0000            51.67         1.86          0.0600            0.0000           7.2333       PFind                   None            0.00    0.00    None