Folder: Non-Linear-XRD-Inversion/Generating XRD fingerprints/INPUT/Detrital data (part 28)

File: G24_pf_FT.txt
Filename:
	C:\Program Files\Thermo Electron\WinXRD\Datafiles\FIEN2\FIEN\G24_FT.pk

File Created:
	February 25, 2021 - 10:46 AM

Specimen Id:
	G24 FT RT

Specimen Name:

Specimen Description:

Comment:
Scan Type: 2Theta Scan
Start Angle: 2 deg.
Stop Angle: 65 deg.
Num Points: 3151
Step Size: 0.02 deg.
Scan Rate: 1.000000
Scan Mode: Continuous
Wavelength: 1.540562
\Kalpha1: 1.540562	\Kalpha2: 1.544390	\Kbeta: 1.392218

Optics:
		Detector:
			 Type: Fixed Slits
		Tube:
			 Type: Fixed Slits

Datas:
Peaks:

Position        Dspace          ESD(P)          Corr.Fact       Intensity       Rel.Int.        FWHM(L)         ESD(L)          Area            Source                  Curve           Strain  CSize   CSize_Source
[deg]           [A]             [deg]           [deg]           [CPS]           [CPS]           [deg]           [deg]           [deg]           [--]                    [--]            [--]    [--]    [--]
  3.6800        23.9899           0.0000          0.0000            98.33         4.34          0.0000            0.0000           5.9000       PFind                   None            0.00    0.00    None
  4.2600        20.7249           0.0000          0.0000            85.83         3.79          0.0200            0.0000          10.3000       PFind                   None            0.00    0.00    None
  5.1600        17.1119           0.0000          0.0000            45.00         1.99          0.0600            0.0000           0.9000       PFind                   None            0.00    0.00    None
  6.5400        13.5039           0.0000          0.0000            58.33         2.58          0.1600            0.0000           1.1667       PFind                   None            0.00    0.00    None
  7.4000        11.9364           0.0000          0.0000            39.17         1.73          0.1000            0.0000           0.7833       PFind                   None            0.00    0.00    None
  9.0200         9.7959           0.0000          0.0000           165.83         7.33          0.0400            0.0000           9.9500       PFind                   None            0.00    0.00    None
 10.0800         8.7680           0.0000          0.0000            35.00         1.55          0.0200            0.0000           0.7000       PFind                   None            0.00    0.00    None
 11.1200         7.9502           0.0000          0.0000            35.00         1.55          0.0600            0.0000           0.7000       PFind                   None            0.00    0.00    None
 12.0200         7.3569           0.0000          0.0000          1808.33        79.90          0.0200            0.0000         180.8333       PFind                   None            0.00    0.00    None
 12.8000         6.9103           0.0000          0.0000            31.67         1.40          0.1200            0.0000           0.0000       PFind                   None            0.00    0.00    None
 13.7200         6.4489           0.0000          0.0000            60.00         2.65          0.1600            0.0000           4.8000       PFind                   None            0.00    0.00    None
 15.2600         5.8014           0.0000          0.0000            34.17         1.51          0.0800            0.0000           0.0000       PFind                   None            0.00    0.00    None
 18.6000         4.7665           0.0000          0.0000           260.00        11.49          0.0200            0.0000          26.0000       PFind                   None            0.00    0.00    None
 20.4000         4.3498           0.0000          0.0000            33.33         1.47          0.0800            0.0000           2.0000       PFind                   None            0.00    0.00    None
 22.1400         4.0117           0.0000          0.0000            37.50         1.66          0.1400            0.0000           0.7500       PFind                   None            0.00    0.00    None
 24.4600         3.6362           0.0000          0.0000           882.50        38.99          0.0800            0.0000         123.5500       PFind                   None            0.00    0.00    None
 26.4800         3.3632           0.0000          0.0000          2263.33       100.00          0.0600            0.0000         226.3333       PFind                   None            0.00    0.00    None
 27.7600         3.2110           0.0000          0.0000           552.50        24.41          0.0200            0.0000          88.4000       PFind                   None            0.00    0.00    None
 29.9400         2.9820           0.0000          0.0000            99.17         4.38          0.0600            0.0000          15.8667       PFind                   None            0.00    0.00    None
 31.0800         2.8751           0.0000          0.0000           142.50         6.30          0.1000            0.0000          22.8000       PFind                   None            0.00    0.00    None
 32.9400         2.7169           0.0000          0.0000            75.00         3.31          0.1200            0.0000           7.5000       PFind                   None            0.00    0.00    None
 34.3800         2.6063           0.0000          0.0000           300.00        13.25          0.0400            0.0000          12.0000       PFind                   None            0.00    0.00    None
 35.9600         2.4954           0.0000          0.0000            57.50         2.54          0.0600            0.0000           4.6000       PFind                   None            0.00    0.00    None
 37.5400         2.3939           0.0000          0.0000            90.83         4.01          0.1000            0.0000          10.9000       PFind                   None            0.00    0.00    None
 39.2800         2.2918           0.0000          0.0000           177.50         7.84          0.0200            0.0000          14.2000       PFind                   None            0.00    0.00    None
 41.8200         2.1582           0.0000          0.0000            85.83         3.79          0.0600            0.0000          13.7333       PFind                   None            0.00    0.00    None
 44.1600         2.0492           0.0000          0.0000            38.33         1.69          0.0400            0.0000           1.5333       PFind                   None            0.00    0.00    None
 45.9600         1.9730           0.0000          0.0000            32.50         1.44          0.0600            0.0000           2.6000       PFind                   None            0.00    0.00    None
 48.2200         1.8857           0.0000          0.0000            40.83         1.80          0.0400            0.0000           1.6333       PFind                   None            0.00    0.00    None
 49.2000         1.8504           0.0000          0.0000            47.50         2.10          0.0800            0.0000           1.9000       PFind                   None            0.00    0.00    None
 51.0600         1.7873           0.0000          0.0000            79.17         3.50          0.1200            0.0000          11.0833       PFind                   None            0.00    0.00    None
 52.4200         1.7440           0.0000          0.0000            42.50         1.88          0.0400            0.0000           3.4000       PFind                   None            0.00    0.00    None
 54.8400         1.6727           0.0000          0.0000            51.67         2.28          0.0800            0.0000           4.1333       PFind                   None            0.00    0.00    None
 56.4600         1.6285           0.0000          0.0000            87.50         3.87          0.1200            0.0000           5.2500       PFind                   None            0.00    0.00    None
 59.0600         1.5628           0.0000          0.0000            62.50         2.76          0.1600            0.0000           6.2500       PFind                   None            0.00    0.00    None
 60.6800         1.5249           0.0000          0.0000            55.00         2.43          0.0400            0.0000           0.0000       PFind                   None            0.00    0.00    None
 61.4200         1.5083           0.0000          0.0000            66.67         2.95          0.1400            0.0000          10.6667       PFind                   None            0.00    0.00    None
 64.0400         1.4528           0.0000          0.0000            36.67         1.62          0.0600            0.0000           5.1333       PFind                   None            0.00    0.00    None

File: G25_pf_RT.txt
Filename:
	C:\Program Files\Thermo Electron\WinXRD\Datafiles\FIEN2\FIEN\G25_RT.pk

File Created:
	February 25, 2021 - 10:47 AM

Specimen Id:
	G 25 RT

Specimen Name:

Specimen Description:

Comment:
Scan Type: 2Theta Scan
Start Angle: 3 deg.
Stop Angle: 65 deg.
Num Points: 3101
Step Size: 0.02 deg.
Scan Rate: 1.000000
Scan Mode: Continuous
Wavelength: 1.540562
\Kalpha1: 1.540562	\Kalpha2: 1.544390	\Kbeta: 1.392218

Optics:
		Detector:
			 Type: Fixed Slits
		Tube:
			 Type: Fixed Slits

Datas:
Peaks:

Position        Dspace          ESD(P)          Corr.Fact       Intensity       Rel.Int.        FWHM(L)         ESD(L)          Area            Source                  Curve           Strain  CSize   CSize_Source
[deg]           [A]             [deg]           [deg]           [CPS]           [CPS]           [deg]           [deg]           [deg]           [--]                    [--]            [--]    [--]    [--]
  4.6800        18.8659           0.0000          0.0000            65.83         2.60          0.0400            0.0000           3.9500       PFind                   None            0.00    0.00    None
  5.3000        16.6602           0.0000          0.0000            53.33         2.10          0.1600            0.0000           6.4000       PFind                   None            0.00    0.00    None
  6.1600        14.3361           0.0000          0.0000           148.33         5.85          0.0800            0.0000          14.8333       PFind                   None            0.00    0.00    None
  6.6400        13.3008           0.0000          0.0000            55.00         2.17          0.0400            0.0000           4.4000       PFind                   None            0.00    0.00    None
  7.2400        12.1998           0.0000          0.0000            40.00         1.58          0.1000            0.0000           3.2000       PFind                   None            0.00    0.00    None
  7.8800        11.2103           0.0000          0.0000            52.50         2.07          0.1200            0.0000           1.0500       PFind                   None            0.00    0.00    None
  8.8000        10.0403           0.0000          0.0000           718.33        28.34          0.1000            0.0000          57.4667       PFind                   None            0.00    0.00    None
  9.7000         9.1106           0.0000          0.0000            40.00         1.58          0.1000            0.0000           4.0000       PFind                   None            0.00    0.00    None
 10.1200         8.7335           0.0000          0.0000            27.50         1.08          0.1400            0.0000           2.2000       PFind                   None            0.00    0.00    None
 10.9600         8.0659           0.0000          0.0000            33.33         1.31          0.0800            0.0000           3.3333       PFind                   None            0.00    0.00    None
 11.4000         7.7556           0.0000          0.0000            30.00         1.18          0.0400            0.0000           0.6000       PFind                   None            0.00    0.00    None
 12.9800         6.8148           0.0000          0.0000            38.33         1.51          0.1600            0.0000           0.7667       PFind                   None            0.00    0.00    None
 13.5600         6.5246           0.0000          0.0000            41.67         1.64          0.0800            0.0000           1.6667       PFind                   None            0.00    0.00    None
 14.3800         6.1544           0.0000          0.0000            28.33         1.12          0.0800            0.0000           0.5667       PFind                   None            0.00    0.00    None
 16.1200         5.4938           0.0000          0.0000            30.83         1.22          0.0400            0.0000           1.2333       PFind                   None            0.00    0.00    None
 18.3600         4.8282           0.0000          0.0000            39.17         1.55          0.0400            0.0000           1.5667       PFind                   None            0.00    0.00    None
 19.4400         4.5624           0.0000          0.0000            35.00         1.38          0.0600            0.0000           0.0000       PFind                   None            0.00    0.00    None
 21.9600         4.0442           0.0000          0.0000           153.33         6.05          0.0800            0.0000          15.3333       PFind                   None            0.00    0.00    None
 23.4600         3.7889           0.0000          0.0000            69.17         2.73          0.0000            0.0000           9.6833       PFind                   None            0.00    0.00    None
 24.2000         3.6747           0.0000          0.0000            55.83         2.20          0.0200            0.0000           5.5833       PFind                   None            0.00    0.00    None
 25.1000         3.5449           0.0000          0.0000           254.17        10.03          0.0600            0.0000          30.5000       PFind                   None            0.00    0.00    None
 26.7800         3.3262           0.0000          0.0000           747.50        29.49          0.1000            0.0000         119.6000       PFind                   None            0.00    0.00    None
 28.5400         3.1250           0.0000          0.0000           106.67         4.21          0.0600            0.0000           4.2667       PFind                   None            0.00    0.00    None
 30.0200         2.9742           0.0000          0.0000            45.00         1.78          0.1000            0.0000           3.6000       PFind                   None            0.00    0.00    None
 31.1400         2.8697           0.0000          0.0000            74.17         2.93          0.0200            0.0000           7.4167       PFind                   None            0.00    0.00    None
 32.9800         2.7137           0.0000          0.0000            45.00         1.78          0.1200            0.0000           3.6000       PFind                   None            0.00    0.00    None
 34.4800         2.5990           0.0000          0.0000            71.67         2.83          0.0400            0.0000           7.1667       PFind                   None            0.00    0.00    None
 36.0000         2.4927           0.0000          0.0000            64.17         2.53          0.1000            0.0000           5.1333       PFind                   None            0.00    0.00    None
 38.4800         2.3375           0.0000          0.0000            30.83         1.22          0.0200            0.0000           1.2333       PFind                   None            0.00    0.00    None
 39.7400         2.2663           0.0000          0.0000            37.50         1.48          0.1000            0.0000           5.2500       PFind                   None            0.00    0.00    None
 41.8800         2.1553           0.0000          0.0000            53.33         2.10          0.1000            0.0000           5.3333       PFind                   None            0.00    0.00    None
 43.6400         2.0724           0.0000          0.0000            60.83         2.40          0.1000            0.0000           0.0000       PFind                   None            0.00    0.00    None
 45.1200         2.0078           0.0000          0.0000            51.67         2.04          0.0400            0.0000           5.1667       PFind                   None            0.00    0.00    None
 48.2600         1.8842           0.0000          0.0000            30.00         1.18          0.0800            0.0000           1.8000       PFind                   None            0.00    0.00    None
 50.0600         1.8206           0.0000          0.0000           389.17        15.35          0.0800            0.0000          23.3500       PFind                   None            0.00    0.00    None
 50.8000         1.7958           0.0000          0.0000            40.00         1.58          0.0400            0.0000           0.8000       PFind                   None            0.00    0.00    None
 52.3400         1.7465           0.0000          0.0000            45.00         1.78          0.1000            0.0000           3.6000       PFind                   None            0.00    0.00    None
 55.2400         1.6615           0.0000          0.0000            50.83         2.01          0.0800            0.0000           7.1167       PFind                   None            0.00    0.00    None
 56.2200         1.6348           0.0000          0.0000            30.83         1.22          0.1000            0.0000           0.0000       PFind                   None            0.00    0.00    None
 57.8000         1.5939           0.0000          0.0000            31.67         1.25          0.1400            0.0000           2.5333       PFind                   None            0.00    0.00    None
 59.8800         1.5434           0.0000          0.0000           208.33         8.22          0.0600            0.0000          16.6667       PFind                   None            0.00    0.00    None
 61.4800         1.5070           0.0000          0.0000            49.17         1.94          0.1600            0.0000           3.9333       PFind                   None            0.00    0.00    None
 62.0200         1.4951           0.0000          0.0000            27.50         1.08          0.1000            0.0000           2.2000       PFind                   None            0.00    0.00    None
 64.1200         1.4512           0.0000          0.0000            38.33         1.51          0.0000            0.0000           5.3667       PFind                   None            0.00    0.00    None