Folder: Non-Linear-XRD-Inversion/Generating XRD fingerprints/INPUT/Detrital data (part 52)

File: GG_1_pf_SFT.txt
Filename:
	C:\Program Files\Thermo Electron\WinXRD\Datafiles\FIEN2\GEO\GG_1_SFT.pk

File Created:
	February 25, 2021 - 10:13 AM

Specimen Id:
	GG1 SFT

Specimen Name:

Specimen Description:

Comment:
Scan Type: 2Theta Scan
Start Angle: 3 deg.
Stop Angle: 65 deg.
Num Points: 3101
Step Size: 0.02 deg.
Scan Rate: 1.000000
Scan Mode: Continuous
Wavelength: 1.540562
\Kalpha1: 1.540562	\Kalpha2: 1.544390	\Kbeta: 1.392218

Optics:
		Detector:
			 Type: Fixed Slits
		Tube:
			 Type: Fixed Slits

Datas:
Peaks:

Position        Dspace          ESD(P)          Corr.Fact       Intensity       Rel.Int.        FWHM(L)         ESD(L)          Area            Source                  Curve           Strain  CSize   CSize_Source
[deg]           [A]             [deg]           [deg]           [CPS]           [CPS]           [deg]           [deg]           [deg]           [--]                    [--]            [--]    [--]    [--]
  4.8000        18.3945           0.0000          0.0000            40.00         2.11          0.0600            0.0000           4.8000       PFind                   None            0.00    0.00    None
  5.2000        16.9804           0.0000          0.0000            45.00         2.38          0.1000            0.0000           5.4000       PFind                   None            0.00    0.00    None
  5.6400        15.6566           0.0000          0.0000            35.00         1.85          0.0800            0.0000           0.0000       PFind                   None            0.00    0.00    None
  6.1400        14.3827           0.0000          0.0000            42.50         2.25          0.0600            0.0000           0.0000       PFind                   None            0.00    0.00    None
  6.8800        12.8373           0.0000          0.0000            35.00         1.85          0.1000            0.0000           2.8000       PFind                   None            0.00    0.00    None
  7.5400        11.7150           0.0000          0.0000            34.17         1.81          0.0600            0.0000           2.0500       PFind                   None            0.00    0.00    None
  8.1400        10.8528           0.0000          0.0000            30.00         1.59          0.0400            0.0000           4.8000       PFind                   None            0.00    0.00    None
  9.2600         9.5425           0.0000          0.0000            53.33         2.82          0.1600            0.0000           6.4000       PFind                   None            0.00    0.00    None
 10.2200         8.6482           0.0000          0.0000            25.00         1.32          0.0800            0.0000           3.0000       PFind                   None            0.00    0.00    None
 10.9000         8.1102           0.0000          0.0000            30.83         1.63          0.0400            0.0000           0.0000       PFind                   None            0.00    0.00    None
 12.3000         7.1900           0.0000          0.0000           209.17        11.06          0.0600            0.0000          33.4667       PFind                   None            0.00    0.00    None
 13.7400         6.4396           0.0000          0.0000            26.67         1.41          0.1200            0.0000           1.0667       PFind                   None            0.00    0.00    None
 15.1000         5.8625           0.0000          0.0000            40.83         2.16          0.1600            0.0000           1.6333       PFind                   None            0.00    0.00    None
 17.1400         5.1691           0.0000          0.0000            29.17         1.54          0.0800            0.0000           0.5833       PFind                   None            0.00    0.00    None
 19.3200         4.5904           0.0000          0.0000            31.67         1.67          0.0800            0.0000           1.2667       PFind                   None            0.00    0.00    None
 20.2600         4.3795           0.0000          0.0000            25.83         1.37          0.1000            0.0000           0.5167       PFind                   None            0.00    0.00    None
 22.1600         4.0081           0.0000          0.0000           234.17        12.38          0.0600            0.0000          18.7333       PFind                   None            0.00    0.00    None
 23.6600         3.7573           0.0000          0.0000           122.50         6.48          0.0800            0.0000          12.2500       PFind                   None            0.00    0.00    None
 24.2200         3.6717           0.0000          0.0000           121.67         6.43          0.0000            0.0000           9.7333       PFind                   None            0.00    0.00    None
 25.6200         3.4741           0.0000          0.0000           197.50        10.44          0.0600            0.0000          31.6000       PFind                   None            0.00    0.00    None
 27.6400         3.2247           0.0000          0.0000           101.67         5.37          0.0600            0.0000          10.1667       PFind                   None            0.00    0.00    None
 28.9000         3.0869           0.0000          0.0000            86.67         4.58          0.0200            0.0000          12.1333       PFind                   None            0.00    0.00    None
 30.3000         2.9474           0.0000          0.0000            58.33         3.08          0.1400            0.0000           7.0000       PFind                   None            0.00    0.00    None
 31.3400         2.8519           0.0000          0.0000           136.67         7.22          0.0200            0.0000          16.4000       PFind                   None            0.00    0.00    None
 33.1800         2.6978           0.0000          0.0000            33.33         1.76          0.1200            0.0000           2.0000       PFind                   None            0.00    0.00    None
 34.6200         2.5888           0.0000          0.0000            74.17         3.92          0.0400            0.0000          11.8667       PFind                   None            0.00    0.00    None
 35.6200         2.5184           0.0000          0.0000            51.67         2.73          0.1000            0.0000           3.1000       PFind                   None            0.00    0.00    None
 36.6600         2.4493           0.0000          0.0000           125.00         6.61          0.1200            0.0000          17.5000       PFind                   None            0.00    0.00    None
 37.7200         2.3829           0.0000          0.0000            75.00         3.96          0.1200            0.0000          12.0000       PFind                   None            0.00    0.00    None
 39.5800         2.2751           0.0000          0.0000           115.00         6.08          0.0400            0.0000           9.2000       PFind                   None            0.00    0.00    None
 40.4000         2.2308           0.0000          0.0000            56.67         3.00          0.0400            0.0000           6.8000       PFind                   None            0.00    0.00    None
 42.0000         2.1494           0.0000          0.0000            25.00         1.32          0.1000            0.0000           4.0000       PFind                   None            0.00    0.00    None
 44.4000         2.0386           0.0000          0.0000           745.00        39.38          0.0000            0.0000          59.6000       PFind                   None            0.00    0.00    None
 45.6600         1.9853           0.0000          0.0000           436.67        23.08          0.0000            0.0000          69.8667       PFind                   None            0.00    0.00    None
 47.2600         1.9217           0.0000          0.0000            28.33         1.50          0.1000            0.0000           0.5667       PFind                   None            0.00    0.00    None
 49.3400         1.8455           0.0000          0.0000            24.17         1.28          0.0400            0.0000           0.9667       PFind                   None            0.00    0.00    None
 50.2400         1.8145           0.0000          0.0000           212.50        11.23          0.0800            0.0000          17.0000       PFind                   None            0.00    0.00    None
 52.9400         1.7281           0.0000          0.0000            30.83         1.63          0.1600            0.0000           0.0000       PFind                   None            0.00    0.00    None
 54.9600         1.6693           0.0000          0.0000            45.00         2.38          0.1600            0.0000           5.4000       PFind                   None            0.00    0.00    None
 55.4200         1.6565           0.0000          0.0000            71.67         3.79          0.0200            0.0000           5.7333       PFind                   None            0.00    0.00    None
 55.8600         1.6445           0.0000          0.0000            65.00         3.44          0.0600            0.0000           6.5000       PFind                   None            0.00    0.00    None
 59.2200         1.5590           0.0000          0.0000            25.00         1.32          0.1600            0.0000           2.0000       PFind                   None            0.00    0.00    None
 60.2200         1.5355           0.0000          0.0000            78.33         4.14          0.0200            0.0000           7.8333       PFind                   None            0.00    0.00    None
 61.5800         1.5048           0.0000          0.0000            49.17         2.60          0.1400            0.0000           7.8667       PFind                   None            0.00    0.00    None
 64.7000         1.4395           0.0000          0.0000           364.17        19.25          0.1200            0.0000          21.8500       PFind                   None            0.00    0.00    None

File: GG_2_pf_SFT.txt
Filename:
	C:\Program Files\Thermo Electron\WinXRD\Datafiles\FIEN2\GEO\GG_2_SFT.pk

File Created:
	February 25, 2021 - 10:14 AM

Specimen Id:
	GG2 SFT

Specimen Name:

Specimen Description:

Comment:
Scan Type: 2Theta Scan
Start Angle: 3 deg.
Stop Angle: 65 deg.
Num Points: 3101
Step Size: 0.02 deg.
Scan Rate: 1.000000
Scan Mode: Continuous
Wavelength: 1.540562
\Kalpha1: 1.540562	\Kalpha2: 1.544390	\Kbeta: 1.392218

Optics:
		Detector:
			 Type: Fixed Slits
		Tube:
			 Type: Fixed Slits

Datas:
Peaks:

Position        Dspace          ESD(P)          Corr.Fact       Intensity       Rel.Int.        FWHM(L)         ESD(L)          Area            Source                  Curve           Strain  CSize   CSize_Source
[deg]           [A]             [deg]           [deg]           [CPS]           [CPS]           [deg]           [deg]           [deg]           [--]                    [--]            [--]    [--]    [--]
  4.7400        18.6272           0.0000          0.0000            50.83         2.84          0.1200            0.0000           2.0333       PFind                   None            0.00    0.00    None
  5.1800        17.0459           0.0000          0.0000            58.33         3.26          0.1200            0.0000           2.3333       PFind                   None            0.00    0.00    None
  6.2800        14.0624           0.0000          0.0000            90.83         5.07          0.1600            0.0000          12.7167       PFind                   None            0.00    0.00    None
  6.8800        12.8373           0.0000          0.0000            42.50         2.37          0.1600            0.0000           2.5500       PFind                   None            0.00    0.00    None
  7.4000        11.9364           0.0000          0.0000            30.00         1.68          0.1600            0.0000           1.2000       PFind                   None            0.00    0.00    None
  7.8200        11.2962           0.0000          0.0000            35.00         1.96          0.0800            0.0000           1.4000       PFind                   None            0.00    0.00    None
  8.4400        10.4677           0.0000          0.0000            62.50         3.49          0.1200            0.0000           3.7500       PFind                   None            0.00    0.00    None
  9.3200         9.4812           0.0000          0.0000            31.67         1.77          0.0800            0.0000           5.0667       PFind                   None            0.00    0.00    None
  9.7800         9.0363           0.0000          0.0000            47.50         2.65          0.1400            0.0000           0.9500       PFind                   None            0.00    0.00    None
 10.5800         8.3547           0.0000          0.0000            70.83         3.96          0.0000            0.0000           7.0833       PFind                   None            0.00    0.00    None
 12.2600         7.2134           0.0000          0.0000           190.00        10.61          0.0600            0.0000          26.6000       PFind                   None            0.00    0.00    None
 14.1400         6.2583           0.0000          0.0000            32.50         1.82          0.0200            0.0000           3.9000       PFind                   None            0.00    0.00    None
 18.8400         4.7063           0.0000          0.0000           100.83         5.63          0.0000            0.0000          10.0833       PFind                   None            0.00    0.00    None
 20.6800         4.2915           0.0000          0.0000            49.17         2.75          0.1400            0.0000           0.0000       PFind                   None            0.00    0.00    None
 22.0400         4.0297           0.0000          0.0000           161.67         9.03          0.1000            0.0000          19.4000       PFind                   None            0.00    0.00    None
 23.8800         3.7232           0.0000          0.0000            60.83         3.40          0.1400            0.0000           7.3000       PFind                   None            0.00    0.00    None
 25.2000         3.5311           0.0000          0.0000           230.83        12.90          0.1400            0.0000          32.3167       PFind                   None            0.00    0.00    None
 26.9200         3.3092           0.0000          0.0000           496.67        27.75          0.0600            0.0000          79.4667       PFind                   None            0.00    0.00    None
 28.3600         3.1444           0.0000          0.0000            86.67         4.84          0.1200            0.0000          13.8667       PFind                   None            0.00    0.00    None
 30.5800         2.9210           0.0000          0.0000            80.83         4.52          0.1000            0.0000           8.0833       PFind                   None            0.00    0.00    None
 31.3000         2.8554           0.0000          0.0000           165.83         9.26          0.0200            0.0000          26.5333       PFind                   None            0.00    0.00    None
 32.1600         2.7810           0.0000          0.0000            98.33         5.49          0.1400            0.0000          13.7667       PFind                   None            0.00    0.00    None
 34.2600         2.6152           0.0000          0.0000            39.17         2.19          0.0200            0.0000           0.0000       PFind                   None            0.00    0.00    None
 35.5600         2.5225           0.0000          0.0000            83.33         4.66          0.1200            0.0000           8.3333       PFind                   None            0.00    0.00    None
 36.6000         2.4532           0.0000          0.0000           153.33         8.57          0.1400            0.0000          21.4667       PFind                   None            0.00    0.00    None
 38.1000         2.3600           0.0000          0.0000            39.17         2.19          0.0600            0.0000           2.3500       PFind                   None            0.00    0.00    None
 39.5400         2.2773           0.0000          0.0000           111.67         6.24          0.0000            0.0000          15.6333       PFind                   None            0.00    0.00    None
 41.9200         2.1533           0.0000          0.0000            45.83         2.56          0.1600            0.0000           7.3333       PFind                   None            0.00    0.00    None
 42.9000         2.1064           0.0000          0.0000            40.83         2.28          0.1600            0.0000           3.2667       PFind                   None            0.00    0.00    None
 46.2200         1.9625           0.0000          0.0000            49.17         2.75          0.1400            0.0000           3.9333       PFind                   None            0.00    0.00    None
 48.1800         1.8872           0.0000          0.0000            50.83         2.84          0.1600            0.0000           5.0833       PFind                   None            0.00    0.00    None
 49.2600         1.8483           0.0000          0.0000            33.33         1.86          0.1600            0.0000           2.6667       PFind                   None            0.00    0.00    None
 50.7400         1.7978           0.0000          0.0000            63.33         3.54          0.1400            0.0000           5.0667       PFind                   None            0.00    0.00    None
 52.2800         1.7484           0.0000          0.0000            42.50         2.37          0.1600            0.0000           5.1000       PFind                   None            0.00    0.00    None
 53.0600         1.7245           0.0000          0.0000            34.17         1.91          0.0600            0.0000           5.4667       PFind                   None            0.00    0.00    None
 55.0600         1.6665           0.0000          0.0000            63.33         3.54          0.1200            0.0000           5.0667       PFind                   None            0.00    0.00    None
 56.2800         1.6332           0.0000          0.0000            32.50         1.82          0.1600            0.0000           0.6500       PFind                   None            0.00    0.00    None
 58.9800         1.5647           0.0000          0.0000            39.17         2.19          0.0800            0.0000           3.1333       PFind                   None            0.00    0.00    None
 60.7200         1.5240           0.0000          0.0000            33.33         1.86          0.1200            0.0000           4.0000       PFind                   None            0.00    0.00    None
 61.5800         1.5048           0.0000          0.0000            70.00         3.91          0.1200            0.0000          11.2000       PFind                   None            0.00    0.00    None
 64.0400         1.4528           0.0000          0.0000            38.33         2.14          0.1000            0.0000           3.8333       PFind                   None            0.00    0.00    None
 64.4200         1.4451           0.0000          0.0000            44.17         2.47          0.1600            0.0000           1.7667       PFind                   None            0.00    0.00    None