Folder: Non-Linear-XRD-Inversion/Generating XRD fingerprints/INPUT/Detrital data (part 30)

File: G28_pf_RT.txt
Filename:
	C:\Program Files\Thermo Electron\WinXRD\Datafiles\FIEN2\FIEN\G28_RT.pk

File Created:
	February 25, 2021 - 10:48 AM

Specimen Id:
	G28 RT

Specimen Name:

Specimen Description:

Comment:
Scan Type: 2Theta Scan
Start Angle: 3 deg.
Stop Angle: 65 deg.
Num Points: 3101
Step Size: 0.02 deg.
Scan Rate: 1.000000
Scan Mode: Continuous
Wavelength: 1.540562
\Kalpha1: 1.540562	\Kalpha2: 1.544390	\Kbeta: 1.392218

Optics:
		Detector:
			 Type: Fixed Slits
		Tube:
			 Type: Fixed Slits

Datas:
Peaks:

Position        Dspace          ESD(P)          Corr.Fact       Intensity       Rel.Int.        FWHM(L)         ESD(L)          Area            Source                  Curve           Strain  CSize   CSize_Source
[deg]           [A]             [deg]           [deg]           [CPS]           [CPS]           [deg]           [deg]           [deg]           [--]                    [--]            [--]    [--]    [--]
  7.7200        11.4423           0.0000          0.0000            26.67         1.06          0.0800            0.0000           1.6000       PFind                   None            0.00    0.00    None
 57.6400         1.5979           0.0000          0.0000            26.67         1.06          0.1600            0.0000           2.6667       PFind                   None            0.00    0.00    None
 42.7600         2.1130           0.0000          0.0000            27.50         1.09          0.0400            0.0000           1.6500       PFind                   None            0.00    0.00    None
 41.8400         2.1573           0.0000          0.0000            28.33         1.12          0.0600            0.0000           1.1333       PFind                   None            0.00    0.00    None
 21.2200         4.1835           0.0000          0.0000            28.33         1.12          0.1400            0.0000           1.7000       PFind                   None            0.00    0.00    None
 63.5200         1.4634           0.0000          0.0000            29.17         1.15          0.0800            0.0000           1.1667       PFind                   None            0.00    0.00    None
 33.9200         2.6406           0.0000          0.0000            30.00         1.19          0.0600            0.0000           4.8000       PFind                   None            0.00    0.00    None
 11.2200         7.8796           0.0000          0.0000            30.83         1.22          0.0800            0.0000           1.2333       PFind                   None            0.00    0.00    None
 38.9800         2.3087           0.0000          0.0000            30.83         1.22          0.0600            0.0000           1.2333       PFind                   None            0.00    0.00    None
  9.6000         9.2053           0.0000          0.0000            31.67         1.25          0.1400            0.0000           2.5333       PFind                   None            0.00    0.00    None
 63.4200         1.4655           0.0000          0.0000            32.50         1.29          0.1000            0.0000           3.9000       PFind                   None            0.00    0.00    None
 19.0400         4.6573           0.0000          0.0000            33.33         1.32          0.1600            0.0000           0.0000       PFind                   None            0.00    0.00    None
  8.1000        10.9063           0.0000          0.0000            34.17         1.35          0.0000            0.0000           2.0500       PFind                   None            0.00    0.00    None
 52.2600         1.7490           0.0000          0.0000            35.83         1.42          0.0800            0.0000           2.8667       PFind                   None            0.00    0.00    None
 55.4400         1.6560           0.0000          0.0000            36.67         1.45          0.1200            0.0000           0.0000       PFind                   None            0.00    0.00    None
 30.8000         2.9006           0.0000          0.0000            37.50         1.48          0.1600            0.0000           3.7500       PFind                   None            0.00    0.00    None
 24.8600         3.5786           0.0000          0.0000            39.17         1.55          0.1600            0.0000           6.2667       PFind                   None            0.00    0.00    None
 52.3600         1.7459           0.0000          0.0000            40.00         1.58          0.0800            0.0000           2.4000       PFind                   None            0.00    0.00    None
 60.6800         1.5249           0.0000          0.0000            41.67         1.65          0.0600            0.0000           6.6667       PFind                   None            0.00    0.00    None
 22.8400         3.8903           0.0000          0.0000            42.50         1.68          0.1600            0.0000           4.2500       PFind                   None            0.00    0.00    None
 47.8800         1.8983           0.0000          0.0000            43.33         1.71          0.1600            0.0000           2.6000       PFind                   None            0.00    0.00    None
 61.6400         1.5034           0.0000          0.0000            44.17         1.75          0.1000            0.0000           5.3000       PFind                   None            0.00    0.00    None
 34.0200         2.6331           0.0000          0.0000            45.00         1.78          0.1600            0.0000           1.8000       PFind                   None            0.00    0.00    None
 60.6200         1.5263           0.0000          0.0000            46.67         1.85          0.0800            0.0000           4.6667       PFind                   None            0.00    0.00    None
 30.2400         2.9531           0.0000          0.0000            48.33         1.91          0.1000            0.0000           7.7333       PFind                   None            0.00    0.00    None
  6.8600        12.8747           0.0000          0.0000            53.33         2.11          0.1600            0.0000           2.1333       PFind                   None            0.00    0.00    None
 37.3600         2.4050           0.0000          0.0000            55.00         2.18          0.0800            0.0000           6.6000       PFind                   None            0.00    0.00    None
  4.8200        18.3182           0.0000          0.0000            59.17         2.34          0.0000            0.0000           8.2833       PFind                   None            0.00    0.00    None
  4.6400        19.0284           0.0000          0.0000            63.33         2.51          0.0800            0.0000           1.2667       PFind                   None            0.00    0.00    None
  5.4400        16.2318           0.0000          0.0000            71.67         2.84          0.0400            0.0000           2.8667       PFind                   None            0.00    0.00    None
 31.1600         2.8679           0.0000          0.0000            81.67         3.23          0.0400            0.0000          13.0667       PFind                   None            0.00    0.00    None
 18.7200         4.7362           0.0000          0.0000            90.83         3.59          0.0400            0.0000           9.0833       PFind                   None            0.00    0.00    None
 25.4000         3.5037           0.0000          0.0000           112.50         4.45          0.0400            0.0000          18.0000       PFind                   None            0.00    0.00    None
  6.1600        14.3361           0.0000          0.0000           130.83         5.18          0.0800            0.0000          13.0833       PFind                   None            0.00    0.00    None
 27.4000         3.2524           0.0000          0.0000           140.83         5.57          0.0600            0.0000          16.9000       PFind                   None            0.00    0.00    None
 42.3600         2.1320           0.0000          0.0000           177.50         7.02          0.0200            0.0000          14.2000       PFind                   None            0.00    0.00    None
 17.7600         4.9900           0.0000          0.0000           245.83         9.73          0.0000            0.0000          19.6667       PFind                   None            0.00    0.00    None
 59.8800         1.5434           0.0000          0.0000           295.00        11.67          0.1000            0.0000          23.6000       PFind                   None            0.00    0.00    None
 50.0400         1.8213           0.0000          0.0000           471.67        18.66          0.0200            0.0000          37.7333       PFind                   None            0.00    0.00    None
 26.5400         3.3558           0.0000          0.0000          2527.50       100.00          0.0200            0.0000         252.7500       PFind                   None            0.00    0.00    None

File: G29_pf_FT.txt
Filename:
	C:\Program Files\Thermo Electron\WinXRD\Datafiles\FIEN2\FIEN\G29_FT.pk

File Created:
	February 25, 2021 - 10:48 AM

Specimen Id:
	G29  FT RT

Specimen Name:

Specimen Description:

Comment:
Scan Type: 2Theta Scan
Start Angle: 2 deg.
Stop Angle: 65 deg.
Num Points: 3151
Step Size: 0.02 deg.
Scan Rate: 1.000000
Scan Mode: Continuous
Wavelength: 1.540562
\Kalpha1: 1.540562	\Kalpha2: 1.544390	\Kbeta: 1.392218

Optics:
		Detector:
			 Type: Fixed Slits
		Tube:
			 Type: Fixed Slits

Datas:
Peaks:

Position        Dspace          ESD(P)          Corr.Fact       Intensity       Rel.Int.        FWHM(L)         ESD(L)          Area            Source                  Curve           Strain  CSize   CSize_Source
[deg]           [A]             [deg]           [deg]           [CPS]           [CPS]           [deg]           [deg]           [deg]           [--]                    [--]            [--]    [--]    [--]
 48.5400         1.8740           0.0000          0.0000            25.83         0.36          0.0600            0.0000           2.0667       PFind                   None            0.00    0.00    None
 46.5800         1.9482           0.0000          0.0000            26.67         0.37          0.1600            0.0000           0.0000       PFind                   None            0.00    0.00    None
 23.8600         3.7263           0.0000          0.0000            28.33         0.39          0.0800            0.0000           0.5667       PFind                   None            0.00    0.00    None
 16.9200         5.2358           0.0000          0.0000            29.17         0.40          0.1000            0.0000           0.0000       PFind                   None            0.00    0.00    None
 63.2600         1.4688           0.0000          0.0000            30.00         0.41          0.0200            0.0000           0.0000       PFind                   None            0.00    0.00    None
 14.9400         5.9249           0.0000          0.0000            30.83         0.43          0.1600            0.0000           1.8500       PFind                   None            0.00    0.00    None
 10.8000         8.1850           0.0000          0.0000            31.67         0.44          0.1000            0.0000           2.5333       PFind                   None            0.00    0.00    None
 60.5800         1.5272           0.0000          0.0000            31.67         0.44          0.1200            0.0000           2.5333       PFind                   None            0.00    0.00    None
 19.0200         4.6622           0.0000          0.0000            32.50         0.45          0.0800            0.0000           0.6500       PFind                   None            0.00    0.00    None
 11.0600         7.9932           0.0000          0.0000            34.17         0.47          0.0400            0.0000           0.6833       PFind                   None            0.00    0.00    None
 52.0000         1.7571           0.0000          0.0000            35.83         0.49          0.0800            0.0000           1.4333       PFind                   None            0.00    0.00    None
 58.6000         1.5740           0.0000          0.0000            36.67         0.51          0.1000            0.0000           2.9333       PFind                   None            0.00    0.00    None
 60.9400         1.5190           0.0000          0.0000            38.33         0.53          0.1200            0.0000           0.7667       PFind                   None            0.00    0.00    None
  7.5400        11.7150           0.0000          0.0000            41.67         0.57          0.1600            0.0000           0.0000       PFind                   None            0.00    0.00    None
 48.1200         1.8894           0.0000          0.0000            42.50         0.59          0.1200            0.0000           6.8000       PFind                   None            0.00    0.00    None
 41.5800         2.1701           0.0000          0.0000            45.83         0.63          0.0400            0.0000           5.5000       PFind                   None            0.00    0.00    None
  5.3400        16.5355           0.0000          0.0000            47.50         0.66          0.1200            0.0000           3.8000       PFind                   None            0.00    0.00    None
 13.9200         6.3567           0.0000          0.0000            50.83         0.70          0.1600            0.0000           7.1167       PFind                   None            0.00    0.00    None
 14.8600         5.9566           0.0000          0.0000            51.67         0.71          0.1600            0.0000           0.0000       PFind                   None            0.00    0.00    None
  4.8800        18.0931           0.0000          0.0000            59.17         0.82          0.0800            0.0000           5.9167       PFind                   None            0.00    0.00    None
 46.9600         1.9333           0.0000          0.0000            64.17         0.89          0.0400            0.0000           8.9833       PFind                   None            0.00    0.00    None
  4.0800        21.6388           0.0000          0.0000            67.50         0.93          0.0800            0.0000           6.7500       PFind                   None            0.00    0.00    None
  6.3400        13.9295           0.0000          0.0000            68.33         0.94          0.0800            0.0000          10.9333       PFind                   None            0.00    0.00    None
  4.3800        20.1574           0.0000          0.0000            70.00         0.97          0.0600            0.0000           4.2000       PFind                   None            0.00    0.00    None
 34.4400         2.6019           0.0000          0.0000            75.83         1.05          0.0000            0.0000          12.1333       PFind                   None            0.00    0.00    None
 30.0800         2.9684           0.0000          0.0000            84.17         1.16          0.0600            0.0000           5.0500       PFind                   None            0.00    0.00    None
 33.7600         2.6528           0.0000          0.0000           106.67         1.47          0.0400            0.0000           4.2667       PFind                   None            0.00    0.00    None
 40.1400         2.2446           0.0000          0.0000           120.83         1.67          0.0800            0.0000           7.2500       PFind                   None            0.00    0.00    None
 54.8600         1.6721           0.0000          0.0000           136.67         1.89          0.0800            0.0000          16.4000       PFind                   None            0.00    0.00    None
 31.1000         2.8733           0.0000          0.0000           150.83         2.08          0.0200            0.0000          18.1000       PFind                   None            0.00    0.00    None
 38.6600         2.3271           0.0000          0.0000           210.83         2.91          0.0800            0.0000           4.2167       PFind                   None            0.00    0.00    None
 24.1400         3.6837           0.0000          0.0000           291.67         4.02          0.1200            0.0000          11.6667       PFind                   None            0.00    0.00    None
 24.5000         3.6304           0.0000          0.0000           330.83         4.56          0.1400            0.0000          46.3167       PFind                   None            0.00    0.00    None
 28.1400         3.1685           0.0000          0.0000           470.83         6.49          0.0200            0.0000          28.2500       PFind                   None            0.00    0.00    None
 27.8000         3.2065           0.0000          0.0000           653.33         9.01          0.1000            0.0000          91.4667       PFind                   None            0.00    0.00    None
 12.0400         7.3447           0.0000          0.0000           890.00        12.28          0.1200            0.0000          71.2000       PFind                   None            0.00    0.00    None
 27.5400         3.2361           0.0000          0.0000          1115.00        15.38          0.0200            0.0000         111.5000       PFind                   None            0.00    0.00    None
  8.7400        10.1091           0.0000          0.0000          3668.33        50.60          0.0600            0.0000         220.1000       PFind                   None            0.00    0.00    None
 26.4800         3.3632           0.0000          0.0000          7250.00       100.00          0.0600            0.0000         580.0000       PFind                   None            0.00    0.00    None