Folder: Non-Linear-XRD-Inversion/Generating XRD fingerprints/INPUT/Detrital data (part 21)

File: 27_8_14_26_1.txt
Position	Dspace	ESD(P)	Corr.Fact	Intensity	Rel.Int.	FWHM(L)	ESD(L)	Area	Source	Curve	Strain	CSize	CSize_Source
[deg]	[A]	[deg]	[deg]	[CPS]	[CPS]	[deg]	[deg]	[deg]	[--]	[--]	[--]	[--]	[--]
3.7400	23.6052	0.0000	0.0000	32.50	0.94	0.0600	0.0000	2.6000	PFind	None	0.00	0.00	None
3.9000	22.6371	0.0000	0.0000	49.17	1.42	0.0200	0.0000	1.9667	PFind	None	0.00	0.00	None
4.0800	21.6388	0.0000	0.0000	40.00	1.16	0.1400	0.0000	0.0000	PFind	None	0.00	0.00	None
4.1400	21.3253	0.0000	0.0000	33.33	0.97	0.0800	0.0000	2.0000	PFind	None	0.00	0.00	None
4.3400	20.3430	0.0000	0.0000	39.17	1.13	0.1200	0.0000	3.9167	PFind	None	0.00	0.00	None
4.4400	19.8851	0.0000	0.0000	35.83	1.04	0.0600	0.0000	2.1500	PFind	None	0.00	0.00	None
4.8400	18.2426	0.0000	0.0000	30.83	0.89	0.0600	0.0000	0.6167	PFind	None	0.00	0.00	None
5.2200	16.9154	0.0000	0.0000	34.17	0.99	0.1200	0.0000	0.0000	PFind	None	0.00	0.00	None
5.4800	16.1134	0.0000	0.0000	30.00	0.87	0.0600	0.0000	0.6000	PFind	None	0.00	0.00	None
5.9400	14.8665	0.0000	0.0000	33.33	0.97	0.0800	0.0000	1.3333	PFind	None	0.00	0.00	None
6.4600	13.6710	0.0000	0.0000	129.17	3.74	0.0600	0.0000	15.5000	PFind	None	0.00	0.00	None
6.9000	12.8002	0.0000	0.0000	43.33	1.25	0.0400	0.0000	0.0000	PFind	None	0.00	0.00	None
7.0400	12.5459	0.0000	0.0000	37.50	1.09	0.0600	0.0000	2.2500	PFind	None	0.00	0.00	None
7.2800	12.1328	0.0000	0.0000	32.50	0.94	0.0400	0.0000	0.6500	PFind	None	0.00	0.00	None
8.1000	10.9063	0.0000	0.0000	31.67	0.92	0.0800	0.0000	0.6333	PFind	None	0.00	0.00	None
8.4600	10.4430	0.0000	0.0000	34.17	0.99	0.1000	0.0000	3.4167	PFind	None	0.00	0.00	None
8.6400	10.2259	0.0000	0.0000	33.33	0.97	0.0600	0.0000	0.6667	PFind	None	0.00	0.00	None
9.0800	9.7313	0.0000	0.0000	667.50	19.32	0.0000	0.0000	53.4000	PFind	None	0.00	0.00	None
9.3800	9.4207	0.0000	0.0000	284.17	8.23	0.0200	0.0000	17.0500	PFind	None	0.00	0.00	None
9.7000	9.1106	0.0000	0.0000	44.17	1.28	0.0400	0.0000	3.5333	PFind	None	0.00	0.00	None
10.7200	8.2459	0.0000	0.0000	93.33	2.70	0.0800	0.0000	5.6000	PFind	None	0.00	0.00	None
12.4200	7.1208	0.0000	0.0000	462.50	13.39	0.1200	0.0000	37.0000	PFind	None	0.00	0.00	None
12.7200	6.9536	0.0000	0.0000	395.00	11.44	0.0000	0.0000	39.5000	PFind	None	0.00	0.00	None
13.8600	6.3841	0.0000	0.0000	40.00	1.16	0.1400	0.0000	4.0000	PFind	None	0.00	0.00	None
14.0600	6.2937	0.0000	0.0000	104.17	3.02	0.0600	0.0000	6.2500	PFind	None	0.00	0.00	None
18.0200	4.9186	0.0000	0.0000	263.33	7.62	0.0800	0.0000	31.6000	PFind	None	0.00	0.00	None
18.6000	4.7665	0.0000	0.0000	153.33	4.44	0.1000	0.0000	12.2667	PFind	None	0.00	0.00	None
18.7600	4.7262	0.0000	0.0000	99.17	2.87	0.0400	0.0000	11.9000	PFind	None	0.00	0.00	None
19.0000	4.6670	0.0000	0.0000	186.67	5.40	0.0800	0.0000	14.9333	PFind	None	0.00	0.00	None
20.1200	4.4097	0.0000	0.0000	50.00	1.45	0.1000	0.0000	3.0000	PFind	None	0.00	0.00	None
21.0600	4.2149	0.0000	0.0000	532.50	15.42	0.0200	0.0000	42.6000	PFind	None	0.00	0.00	None
21.3200	4.1641	0.0000	0.0000	81.67	2.36	0.1400	0.0000	8.1667	PFind	None	0.00	0.00	None
22.2600	3.9904	0.0000	0.0000	3454.17	100.00	0.0800	0.0000	138.1667	PFind	None	0.00	0.00	None
22.7200	3.9106	0.0000	0.0000	50.83	1.47	0.1400	0.0000	1.0167	PFind	None	0.00	0.00	None
23.3000	3.8145	0.0000	0.0000	44.17	1.28	0.0200	0.0000	3.5333	PFind	None	0.00	0.00	None
23.7800	3.7386	0.0000	0.0000	85.83	2.48	0.0800	0.0000	6.8667	PFind	None	0.00	0.00	None
24.5200	3.6274	0.0000	0.0000	101.67	2.94	0.0800	0.0000	8.1333	PFind	None	0.00	0.00	None
24.8400	3.5814	0.0000	0.0000	336.67	9.75	0.0200	0.0000	47.1333	PFind	None	0.00	0.00	None
25.0600	3.5505	0.0000	0.0000	107.50	3.11	0.0800	0.0000	15.0500	PFind	None	0.00	0.00	None
25.3800	3.5064	0.0000	0.0000	306.67	8.88	0.0200	0.0000	36.8000	PFind	None	0.00	0.00	None
25.7200	3.4609	0.0000	0.0000	60.00	1.74	0.1600	0.0000	9.6000	PFind	None	0.00	0.00	None
25.8400	3.4451	0.0000	0.0000	50.83	1.47	0.1200	0.0000	8.1333	PFind	None	0.00	0.00	None
26.4000	3.3732	0.0000	0.0000	36.67	1.06	0.0400	0.0000	4.4000	PFind	None	0.00	0.00	None
26.8400	3.3189	0.0000	0.0000	1692.50	49.00	0.0000	0.0000	169.2500	PFind	None	0.00	0.00	None
27.1000	3.2877	0.0000	0.0000	765.00	22.15	0.0600	0.0000	107.1000	PFind	None	0.00	0.00	None
27.7000	3.2178	0.0000	0.0000	100.00	2.90	0.1000	0.0000	14.0000	PFind	None	0.00	0.00	None
28.1400	3.1685	0.0000	0.0000	835.00	24.17	0.1000	0.0000	100.2000	PFind	None	0.00	0.00	None
28.8400	3.0932	0.0000	0.0000	110.00	3.18	0.1200	0.0000	15.4000	PFind	None	0.00	0.00	None
30.0000	2.9761	0.0000	0.0000	55.00	1.59	0.1000	0.0000	5.5000	PFind	None	0.00	0.00	None
30.3000	2.9474	0.0000	0.0000	210.00	6.08	0.0800	0.0000	4.2000	PFind	None	0.00	0.00	None
30.7000	2.9099	0.0000	0.0000	48.33	1.40	0.0800	0.0000	3.8667	PFind	None	0.00	0.00	None
30.9800	2.8842	0.0000	0.0000	50.83	1.47	0.1400	0.0000	3.0500	PFind	None	0.00	0.00	None
31.4400	2.8430	0.0000	0.0000	47.50	1.38	0.0600	0.0000	7.6000	PFind	None	0.00	0.00	None
31.7600	2.8151	0.0000	0.0000	75.83	2.20	0.1400	0.0000	1.5167	PFind	None	0.00	0.00	None
32.0800	2.7878	0.0000	0.0000	64.17	1.86	0.1600	0.0000	2.5667	PFind	None	0.00	0.00	None
33.6000	2.6650	0.0000	0.0000	508.33	14.72	0.0400	0.0000	20.3333	PFind	None	0.00	0.00	None
34.5400	2.5946	0.0000	0.0000	42.50	1.23	0.0200	0.0000	2.5500	PFind	None	0.00	0.00	None
34.7600	2.5787	0.0000	0.0000	35.83	1.04	0.0400	0.0000	0.7167	PFind	None	0.00	0.00	None
35.2000	2.5475	0.0000	0.0000	37.50	1.09	0.0600	0.0000	3.7500	PFind	None	0.00	0.00	None
35.7200	2.5116	0.0000	0.0000	53.33	1.54	0.1400	0.0000	7.4667	PFind	None	0.00	0.00	None
36.3200	2.4715	0.0000	0.0000	59.17	1.71	0.1200	0.0000	8.2833	PFind	None	0.00	0.00	None
36.7600	2.4429	0.0000	0.0000	287.50	8.32	0.1000	0.0000	11.5000	PFind	None	0.00	0.00	None
37.3800	2.4038	0.0000	0.0000	33.33	0.97	0.1600	0.0000	4.0000	PFind	None	0.00	0.00	None
38.3200	2.3469	0.0000	0.0000	2306.67	66.78	0.0400	0.0000	138.4000	PFind	None	0.00	0.00	None
39.0400	2.3053	0.0000	0.0000	32.50	0.94	0.0600	0.0000	1.9500	PFind	None	0.00	0.00	None
39.6800	2.2696	0.0000	0.0000	96.67	2.80	0.0200	0.0000	3.8667	PFind	None	0.00	0.00	None
40.0000	2.2522	0.0000	0.0000	34.17	0.99	0.0800	0.0000	1.3667	PFind	None	0.00	0.00	None
40.5000	2.2255	0.0000	0.0000	44.17	1.28	0.1600	0.0000	2.6500	PFind	None	0.00	0.00	None
42.6600	2.1177	0.0000	0.0000	111.67	3.23	0.1200	0.0000	11.1667	PFind	None	0.00	0.00	None
44.5000	2.0343	0.0000	0.0000	1183.33	34.26	0.0600	0.0000	94.6667	PFind	None	0.00	0.00	None
45.1600	2.0061	0.0000	0.0000	40.83	1.18	0.1000	0.0000	4.0833	PFind	None	0.00	0.00	None
45.8200	1.9787	0.0000	0.0000	238.33	6.90	0.0600	0.0000	28.6000	PFind	None	0.00	0.00	None
50.1400	1.8179	0.0000	0.0000	30.83	0.89	0.1000	0.0000	4.9333	PFind	None	0.00	0.00	None
50.3400	1.8111	0.0000	0.0000	193.33	5.60	0.0600	0.0000	11.6000	PFind	None	0.00	0.00	None
50.4600	1.8071	0.0000	0.0000	110.00	3.18	0.0800	0.0000	8.8000	PFind	None	0.00	0.00	None
55.0600	1.6665	0.0000	0.0000	66.67	1.93	0.1200	0.0000	5.3333	PFind	None	0.00	0.00	None
55.2000	1.6626	0.0000	0.0000	39.17	1.13	0.0400	0.0000	2.3500	PFind	None	0.00	0.00	None
55.5200	1.6538	0.0000	0.0000	35.00	1.01	0.1000	0.0000	1.4000	PFind	None	0.00	0.00	None
59.4200	1.5542	0.0000	0.0000	42.50	1.23	0.0600	0.0000	2.5500	PFind	None	0.00	0.00	None
60.1600	1.5368	0.0000	0.0000	155.83	4.51	0.1000	0.0000	12.4667	PFind	None	0.00	0.00	None
60.3200	1.5332	0.0000	0.0000	86.67	2.51	0.0800	0.0000	8.6667	PFind	None	0.00	0.00	None
63.6600	1.4605	0.0000	0.0000	30.00	0.87	0.0600	0.0000	1.8000	PFind	None	0.00	0.00	None
64.6200	1.4411	0.0000	0.0000	706.67	20.46	0.0200	0.0000	42.4000	PFind	None	0.00	0.00	None
64.8000	1.4376	0.0000	0.0000	368.33	10.66	0.0600	0.0000	22.1000	PFind	None	0.00	0.00	None

File: 27_8_14_55_3.txt
Position	Dspace	ESD(P)	Corr.Fact	Intensity	Rel.Int.	FWHM(L)	ESD(L)	Area	Source	Curve	Strain	CSize	CSize_Source
[deg]	[A]	[deg]	[deg]	[CPS]	[CPS]	[deg]	[deg]	[deg]	[--]	[--]	[--]	[--]	[--]
3.7000	23.8603	0.0000	0.0000	50.00	3.47	0.1600	0.0000	2.0000	PFind	None	0.00	0.00	None
4.1000	21.5333	0.0000	0.0000	45.83	3.18	0.1600	0.0000	2.7500	PFind	None	0.00	0.00	None
4.3000	20.5322	0.0000	0.0000	37.50	2.60	0.1000	0.0000	3.0000	PFind	None	0.00	0.00	None
4.6400	19.0284	0.0000	0.0000	37.50	2.60	0.0800	0.0000	2.2500	PFind	None	0.00	0.00	None
5.0000	17.6591	0.0000	0.0000	36.67	2.54	0.0600	0.0000	2.9333	PFind	None	0.00	0.00	None
5.1800	17.0459	0.0000	0.0000	38.33	2.66	0.0600	0.0000	0.0000	PFind	None	0.00	0.00	None
5.8200	15.1728	0.0000	0.0000	38.33	2.66	0.0800	0.0000	0.0000	PFind	None	0.00	0.00	None
6.1800	14.2897	0.0000	0.0000	51.67	3.58	0.1200	0.0000	3.1000	PFind	None	0.00	0.00	None
6.4000	13.7990	0.0000	0.0000	40.00	2.77	0.0800	0.0000	4.0000	PFind	None	0.00	0.00	None
8.8800	9.9500	0.0000	0.0000	65.00	4.51	0.1600	0.0000	5.2000	PFind	None	0.00	0.00	None
9.0200	9.7959	0.0000	0.0000	109.17	7.57	0.0800	0.0000	13.1000	PFind	None	0.00	0.00	None
9.9400	8.8912	0.0000	0.0000	37.50	2.60	0.1400	0.0000	3.0000	PFind	None	0.00	0.00	None
12.3600	7.1553	0.0000	0.0000	108.33	7.51	0.1200	0.0000	17.3333	PFind	None	0.00	0.00	None
12.6600	6.9864	0.0000	0.0000	153.33	10.64	0.0800	0.0000	18.4000	PFind	None	0.00	0.00	None
17.9800	4.9294	0.0000	0.0000	77.50	5.38	0.1400	0.0000	12.4000	PFind	None	0.00	0.00	None
18.9600	4.6768	0.0000	0.0000	90.00	6.24	0.1400	0.0000	9.0000	PFind	None	0.00	0.00	None
19.8000	4.4802	0.0000	0.0000	254.17	17.63	0.0000	0.0000	15.2500	PFind	None	0.00	0.00	None
20.0400	4.4271	0.0000	0.0000	47.50	3.29	0.1000	0.0000	7.6000	PFind	None	0.00	0.00	None
21.0200	4.2229	0.0000	0.0000	1159.17	80.40	0.0600	0.0000	92.7333	PFind	None	0.00	0.00	None
22.1600	4.0081	0.0000	0.0000	144.17	10.00	0.1600	0.0000	11.5333	PFind	None	0.00	0.00	None
23.1800	3.8340	0.0000	0.0000	71.67	4.97	0.1400	0.0000	8.6000	PFind	None	0.00	0.00	None
23.7000	3.7511	0.0000	0.0000	197.50	13.70	0.1000	0.0000	19.7500	PFind	None	0.00	0.00	None
24.4000	3.6450	0.0000	0.0000	37.50	2.60	0.0800	0.0000	5.2500	PFind	None	0.00	0.00	None
24.7800	3.5900	0.0000	0.0000	140.00	9.71	0.1200	0.0000	22.4000	PFind	None	0.00	0.00	None
25.2800	3.5201	0.0000	0.0000	208.33	14.45	0.0000	0.0000	25.0000	PFind	None	0.00	0.00	None
25.6600	3.4688	0.0000	0.0000	117.50	8.15	0.1600	0.0000	16.4500	PFind	None	0.00	0.00	None
26.7800	3.3262	0.0000	0.0000	1441.67	100.00	0.0400	0.0000	144.1667	PFind	None	0.00	0.00	None
27.6200	3.2269	0.0000	0.0000	135.00	9.36	0.1000	0.0000	16.2000	PFind	None	0.00	0.00	None
28.0800	3.1751	0.0000	0.0000	256.67	17.80	0.0800	0.0000	41.0667	PFind	None	0.00	0.00	None
28.4400	3.1357	0.0000	0.0000	51.67	3.58	0.1200	0.0000	8.2667	PFind	None	0.00	0.00	None
28.7200	3.1058	0.0000	0.0000	86.67	6.01	0.1000	0.0000	12.1333	PFind	None	0.00	0.00	None
30.0000	2.9761	0.0000	0.0000	100.83	6.99	0.1000	0.0000	14.1167	PFind	None	0.00	0.00	None
30.3000	2.9474	0.0000	0.0000	52.50	3.64	0.1600	0.0000	4.2000	PFind	None	0.00	0.00	None
30.6400	2.9154	0.0000	0.0000	43.33	3.01	0.0000	0.0000	6.9333	PFind	None	0.00	0.00	None
31.3600	2.8501	0.0000	0.0000	81.67	5.66	0.1600	0.0000	11.4333	PFind	None	0.00	0.00	None
32.2000	2.7776	0.0000	0.0000	49.17	3.41	0.0400	0.0000	5.9000	PFind	None	0.00	0.00	None
33.1200	2.7026	0.0000	0.0000	46.67	3.24	0.1000	0.0000	4.6667	PFind	None	0.00	0.00	None
34.5000	2.5975	0.0000	0.0000	82.50	5.72	0.1200	0.0000	8.2500	PFind	None	0.00	0.00	None
35.0800	2.5559	0.0000	0.0000	67.50	4.68	0.0800	0.0000	10.8000	PFind	None	0.00	0.00	None
35.6600	2.5157	0.0000	0.0000	94.17	6.53	0.1200	0.0000	9.4167	PFind	None	0.00	0.00	None
36.2200	2.4780	0.0000	0.0000	37.50	2.60	0.1600	0.0000	4.5000	PFind	None	0.00	0.00	None
36.6800	2.4480	0.0000	0.0000	197.50	13.70	0.0600	0.0000	23.7000	PFind	None	0.00	0.00	None
37.7800	2.3792	0.0000	0.0000	81.67	5.66	0.1600	0.0000	13.0667	PFind	None	0.00	0.00	None
38.9400	2.3110	0.0000	0.0000	131.67	9.13	0.0600	0.0000	5.2667	PFind	None	0.00	0.00	None
39.6000	2.2740	0.0000	0.0000	113.33	7.86	0.0800	0.0000	11.3333	PFind	None	0.00	0.00	None
40.4000	2.2308	0.0000	0.0000	62.50	4.34	0.1400	0.0000	6.2500	PFind	None	0.00	0.00	None
41.8600	2.1563	0.0000	0.0000	43.33	3.01	0.1600	0.0000	6.9333	PFind	None	0.00	0.00	None
42.0200	2.1484	0.0000	0.0000	37.50	2.60	0.0600	0.0000	3.0000	PFind	None	0.00	0.00	None
42.6000	2.1205	0.0000	0.0000	744.17	51.62	0.0800	0.0000	44.6500	PFind	None	0.00	0.00	None
45.1400	2.0069	0.0000	0.0000	39.17	2.72	0.0600	0.0000	6.2667	PFind	None	0.00	0.00	None
45.3000	2.0002	0.0000	0.0000	44.17	3.06	0.0800	0.0000	0.0000	PFind	None	0.00	0.00	None
45.3800	1.9969	0.0000	0.0000	39.17	2.72	0.1600	0.0000	6.2667	PFind	None	0.00	0.00	None
45.6400	1.9861	0.0000	0.0000	139.17	9.65	0.1600	0.0000	22.2667	PFind	None	0.00	0.00	None
46.1200	1.9665	0.0000	0.0000	43.33	3.01	0.0600	0.0000	3.4667	PFind	None	0.00	0.00	None
47.2600	1.9217	0.0000	0.0000	60.00	4.16	0.1200	0.0000	9.6000	PFind	None	0.00	0.00	None
48.2400	1.8849	0.0000	0.0000	54.17	3.76	0.1000	0.0000	3.2500	PFind	None	0.00	0.00	None
50.2200	1.8152	0.0000	0.0000	266.67	18.50	0.0600	0.0000	21.3333	PFind	None	0.00	0.00	None
50.7200	1.7984	0.0000	0.0000	165.00	11.45	0.1200	0.0000	9.9000	PFind	None	0.00	0.00	None
54.9600	1.6693	0.0000	0.0000	42.50	2.95	0.1600	0.0000	3.4000	PFind	None	0.00	0.00	None
55.4400	1.6560	0.0000	0.0000	53.33	3.70	0.1000	0.0000	3.2000	PFind	None	0.00	0.00	None
55.9800	1.6413	0.0000	0.0000	51.67	3.58	0.1000	0.0000	8.2667	PFind	None	0.00	0.00	None
60.0600	1.5392	0.0000	0.0000	165.00	11.45	0.0800	0.0000	13.2000	PFind	None	0.00	0.00	None
60.2000	1.5359	0.0000	0.0000	95.83	6.65	0.1400	0.0000	13.4167	PFind	None	0.00	0.00	None
61.8000	1.4999	0.0000	0.0000	95.00	6.59	0.1600	0.0000	7.6000	PFind	None	0.00	0.00	None
62.0000	1.4956	0.0000	0.0000	40.00	2.77	0.1600	0.0000	4.0000	PFind	None	0.00	0.00	None
63.9800	1.4540	0.0000	0.0000	37.50	2.60	0.0800	0.0000	2.2500	PFind	None	0.00	0.00	None

File: 28_7_11_26_1.txt
Position	Dspace	ESD(P)	Corr.Fact	Intensity	Rel.Int.	FWHM(L)	ESD(L)	Area	Source	Curve	Strain	CSize	CSize_Source
[deg]	[A]	[deg]	[deg]	[CPS]	[CPS]	[deg]	[deg]	[deg]	[--]	[--]	[--]	[--]	[--]
2.7800	31.7541	0.0000	0.0000	69.17	2.08	0.0800	0.0000	5.5333	PFind	None	0.00	0.00	None
2.9200	30.2319	0.0000	0.0000	64.17	1.93	0.0600	0.0000	2.5667	PFind	None	0.00	0.00	None
3.2400	27.2467	0.0000	0.0000	45.00	1.35	0.0400	0.0000	6.3000	PFind	None	0.00	0.00	None
3.4600	25.5148	0.0000	0.0000	45.00	1.35	0.0000	0.0000	3.6000	PFind	None	0.00	0.00	None
3.5000	25.2233	0.0000	0.0000	48.33	1.45	0.0600	0.0000	0.9667	PFind	None	0.00	0.00	None
3.6800	23.9899	0.0000	0.0000	37.50	1.13	0.1200	0.0000	3.7500	PFind	None	0.00	0.00	None
3.8600	22.8716	0.0000	0.0000	57.50	1.73	0.0800	0.0000	1.1500	PFind	None	0.00	0.00	None
3.9800	22.1823	0.0000	0.0000	38.33	1.15	0.0400	0.0000	3.0667	PFind	None	0.00	0.00	None
4.1000	21.5333	0.0000	0.0000	40.83	1.23	0.0800	0.0000	0.0000	PFind	None	0.00	0.00	None
4.2600	20.7249	0.0000	0.0000	35.83	1.08	0.1400	0.0000	0.0000	PFind	None	0.00	0.00	None
4.3600	20.2498	0.0000	0.0000	50.00	1.50	0.0000	0.0000	2.0000	PFind	None	0.00	0.00	None
4.6600	18.9468	0.0000	0.0000	40.83	1.23	0.0800	0.0000	2.4500	PFind	None	0.00	0.00	None
4.8800	18.0931	0.0000	0.0000	54.17	1.63	0.0400	0.0000	1.0833	PFind	None	0.00	0.00	None
5.1400	17.1785	0.0000	0.0000	35.00	1.05	0.1600	0.0000	2.8000	PFind	None	0.00	0.00	None
5.4200	16.2916	0.0000	0.0000	29.17	0.88	0.1600	0.0000	2.3333	PFind	None	0.00	0.00	None
5.5800	15.8248	0.0000	0.0000	33.33	1.00	0.0800	0.0000	0.0000	PFind	None	0.00	0.00	None
5.8600	15.0693	0.0000	0.0000	43.33	1.30	0.1600	0.0000	3.4667	PFind	None	0.00	0.00	None
6.0200	14.6692	0.0000	0.0000	60.83	1.83	0.0200	0.0000	3.6500	PFind	None	0.00	0.00	None
6.3000	14.0178	0.0000	0.0000	29.17	0.88	0.1600	0.0000	2.3333	PFind	None	0.00	0.00	None
6.4600	13.6710	0.0000	0.0000	28.33	0.85	0.1600	0.0000	1.7000	PFind	None	0.00	0.00	None
6.5400	13.5039	0.0000	0.0000	28.33	0.85	0.0600	0.0000	0.5667	PFind	None	0.00	0.00	None
6.6800	13.2212	0.0000	0.0000	29.17	0.88	0.0600	0.0000	2.3333	PFind	None	0.00	0.00	None
6.8200	12.9501	0.0000	0.0000	34.17	1.03	0.1600	0.0000	1.3667	PFind	None	0.00	0.00	None
7.2200	12.2335	0.0000	0.0000	23.33	0.70	0.1200	0.0000	0.0000	PFind	None	0.00	0.00	None
7.3800	11.9687	0.0000	0.0000	23.33	0.70	0.1000	0.0000	1.4000	PFind	None	0.00	0.00	None
8.0000	11.0424	0.0000	0.0000	39.17	1.18	0.1600	0.0000	0.0000	PFind	None	0.00	0.00	None
8.3000	10.6440	0.0000	0.0000	79.17	2.38	0.0000	0.0000	6.3333	PFind	None	0.00	0.00	None
8.6600	10.2023	0.0000	0.0000	649.17	19.51	0.0800	0.0000	103.8667	PFind	None	0.00	0.00	None
9.2200	9.5838	0.0000	0.0000	66.67	2.00	0.0600	0.0000	10.6667	PFind	None	0.00	0.00	None
9.5400	9.2631	0.0000	0.0000	27.50	0.83	0.0800	0.0000	2.7500	PFind	None	0.00	0.00	None
9.7200	9.0919	0.0000	0.0000	28.33	0.85	0.0800	0.0000	0.0000	PFind	None	0.00	0.00	None
9.9000	8.9270	0.0000	0.0000	23.33	0.70	0.1200	0.0000	0.9333	PFind	None	0.00	0.00	None
10.0000	8.8380	0.0000	0.0000	25.00	0.75	0.1000	0.0000	0.5000	PFind	None	0.00	0.00	None
10.1400	8.7163	0.0000	0.0000	47.50	1.43	0.0800	0.0000	0.9500	PFind	None	0.00	0.00	None
10.3200	8.5646	0.0000	0.0000	47.50	1.43	0.0000	0.0000	7.6000	PFind	None	0.00	0.00	None
10.6200	8.3234	0.0000	0.0000	23.33	0.70	0.0600	0.0000	1.8667	PFind	None	0.00	0.00	None
10.8800	8.1250	0.0000	0.0000	25.83	0.78	0.1600	0.0000	2.0667	PFind	None	0.00	0.00	None
11.5600	7.6486	0.0000	0.0000	25.00	0.75	0.0400	0.0000	2.0000	PFind	None	0.00	0.00	None
11.9400	7.4060	0.0000	0.0000	520.83	15.65	0.0200	0.0000	83.3333	PFind	None	0.00	0.00	None
12.1800	7.2606	0.0000	0.0000	448.33	13.47	0.0800	0.0000	71.7333	PFind	None	0.00	0.00	None
13.3200	6.6417	0.0000	0.0000	24.17	0.73	0.0400	0.0000	0.9667	PFind	None	0.00	0.00	None
13.5600	6.5246	0.0000	0.0000	26.67	0.80	0.0200	0.0000	3.7333	PFind	None	0.00	0.00	None
13.7200	6.4489	0.0000	0.0000	25.00	0.75	0.1600	0.0000	3.0000	PFind	None	0.00	0.00	None
14.7000	6.0211	0.0000	0.0000	30.00	0.90	0.1600	0.0000	2.4000	PFind	None	0.00	0.00	None
16.6400	5.3232	0.0000	0.0000	28.33	0.85	0.1200	0.0000	0.0000	PFind	None	0.00	0.00	None
17.6200	5.0293	0.0000	0.0000	230.00	6.91	0.0600	0.0000	32.2000	PFind	None	0.00	0.00	None
18.6000	4.7665	0.0000	0.0000	132.50	3.98	0.0800	0.0000	21.2000	PFind	None	0.00	0.00	None
18.9400	4.6817	0.0000	0.0000	26.67	0.80	0.0400	0.0000	4.2667	PFind	None	0.00	0.00	None
20.5800	4.3121	0.0000	0.0000	233.33	7.01	0.0400	0.0000	18.6667	PFind	None	0.00	0.00	None
20.8800	4.2509	0.0000	0.0000	24.17	0.73	0.1000	0.0000	1.4500	PFind	None	0.00	0.00	None
22.0600	4.0261	0.0000	0.0000	45.83	1.38	0.1600	0.0000	1.8333	PFind	None	0.00	0.00	None
22.3600	3.9727	0.0000	0.0000	35.83	1.08	0.0000	0.0000	2.8667	PFind	None	0.00	0.00	None
24.4200	3.6421	0.0000	0.0000	298.33	8.97	0.0000	0.0000	47.7333	PFind	None	0.00	0.00	None
25.0000	3.5589	0.0000	0.0000	189.17	5.68	0.0200	0.0000	30.2667	PFind	None	0.00	0.00	None
25.5400	3.4848	0.0000	0.0000	23.33	0.70	0.1000	0.0000	1.4000	PFind	None	0.00	0.00	None
26.6600	3.3409	0.0000	0.0000	607.50	18.26	0.0200	0.0000	97.2000	PFind	None	0.00	0.00	None
27.3200	3.2617	0.0000	0.0000	30.83	0.93	0.1600	0.0000	4.9333	PFind	None	0.00	0.00	None
27.5800	3.2315	0.0000	0.0000	240.00	7.21	0.0000	0.0000	28.8000	PFind	None	0.00	0.00	None
28.4600	3.1336	0.0000	0.0000	65.00	1.95	0.0800	0.0000	5.2000	PFind	None	0.00	0.00	None
28.6000	3.1186	0.0000	0.0000	45.83	1.38	0.1600	0.0000	2.7500	PFind	None	0.00	0.00	None
31.4200	2.8448	0.0000	0.0000	37.50	1.13	0.1400	0.0000	6.0000	PFind	None	0.00	0.00	None
31.5800	2.8307	0.0000	0.0000	43.33	1.30	0.0200	0.0000	6.9333	PFind	None	0.00	0.00	None
34.2000	2.6196	0.0000	0.0000	45.00	1.35	0.1000	0.0000	3.6000	PFind	None	0.00	0.00	None
35.1400	2.5517	0.0000	0.0000	33.33	1.00	0.0400	0.0000	0.6667	PFind	None	0.00	0.00	None
35.2200	2.5461	0.0000	0.0000	23.33	0.70	0.1600	0.0000	0.9333	PFind	None	0.00	0.00	None
35.3800	2.5349	0.0000	0.0000	25.00	0.75	0.0000	0.0000	0.5000	PFind	None	0.00	0.00	None
35.8800	2.5007	0.0000	0.0000	39.17	1.18	0.1600	0.0000	6.2667	PFind	None	0.00	0.00	None
36.2600	2.4754	0.0000	0.0000	44.17	1.33	0.0200	0.0000	5.3000	PFind	None	0.00	0.00	None
37.0800	2.4225	0.0000	0.0000	24.17	0.73	0.1400	0.0000	0.0000	PFind	None	0.00	0.00	None
37.9600	2.3684	0.0000	0.0000	3327.50	100.00	0.0800	0.0000	532.4000	PFind	None	0.00	0.00	None
39.6400	2.2718	0.0000	0.0000	33.33	1.00	0.0600	0.0000	1.3333	PFind	None	0.00	0.00	None
42.2400	2.1378	0.0000	0.0000	26.67	0.80	0.0200	0.0000	2.6667	PFind	None	0.00	0.00	None
44.1200	2.0509	0.0000	0.0000	1426.67	42.88	0.0400	0.0000	199.7333	PFind	None	0.00	0.00	None
44.6800	2.0265	0.0000	0.0000	36.67	1.10	0.0800	0.0000	3.6667	PFind	None	0.00	0.00	None
44.8000	2.0214	0.0000	0.0000	27.50	0.83	0.1600	0.0000	1.1000	PFind	None	0.00	0.00	None
45.4400	1.9944	0.0000	0.0000	174.17	5.23	0.0800	0.0000	27.8667	PFind	None	0.00	0.00	None
47.0200	1.9310	0.0000	0.0000	33.33	1.00	0.0800	0.0000	3.3333	PFind	None	0.00	0.00	None
49.9400	1.8247	0.0000	0.0000	25.00	0.75	0.1200	0.0000	1.5000	PFind	None	0.00	0.00	None
50.2000	1.8158	0.0000	0.0000	40.00	1.20	0.0800	0.0000	4.8000	PFind	None	0.00	0.00	None
64.2800	1.4479	0.0000	0.0000	1000.00	30.05	0.1400	0.0000	100.0000	PFind	None	0.00	0.00	None
64.4600	1.4443	0.0000	0.0000	573.33	17.23	0.1000	0.0000	68.8000	PFind	None	0.00	0.00	None