Folder: Non-Linear-XRD-Inversion/Generating XRD fingerprints/INPUT/Detrital data (part 2)

File: 1_2_AUG_PF_FILTER.txt
Filename:
	H:\1_2_AUG_FILTER.pk

File Created:
	April 16, 2019 - 04:32 PM

Specimen Id:
	1.2   AUG FILTER

Specimen Name:

Specimen Description:

Comment:
Scan Type: 2Theta Scan
Start Angle: 2 deg.
Stop Angle: 65 deg.
Num Points: 3151
Step Size: 0.02 deg.
Scan Rate: 1.000000
Scan Mode: Continuous
Wavelength: 1.540562
\Kalpha1: 1.540562	\Kalpha2: 1.544390	\Kbeta: 1.392218

Optics:
		Detector:
			 Type: Fixed Slits
		Tube:
			 Type: Fixed Slits

Datas:
Peaks:

Position        Dspace          ESD(P)          Corr.Fact       Intensity       Rel.Int.        FWHM(L)         ESD(L)          Area            Source                  Curve           Strain  CSize   CSize_Source
[deg]           [A]             [deg]           [deg]           [CPS]           [CPS]           [deg]           [deg]           [deg]           [--]                    [--]            [--]    [--]    [--]
  3.7400        23.6052           0.0000          0.0000            38.33         2.05          0.1200            0.0000           0.0000       PFind                   None            0.00    0.00    None
  4.0400        21.8530           0.0000          0.0000            35.00         1.87          0.1200            0.0000           4.2000       PFind                   None            0.00    0.00    None
  4.3200        20.4372           0.0000          0.0000            39.17         2.10          0.1200            0.0000           2.3500       PFind                   None            0.00    0.00    None
  5.1800        17.0459           0.0000          0.0000            39.17         2.10          0.1400            0.0000           0.7833       PFind                   None            0.00    0.00    None
  8.9800         9.8394           0.0000          0.0000           192.50        10.31          0.0600            0.0000          23.1000       PFind                   None            0.00    0.00    None
 10.6800         8.2767           0.0000          0.0000           114.17         6.11          0.1600            0.0000          13.7000       PFind                   None            0.00    0.00    None
 12.6400         6.9974           0.0000          0.0000           245.83        13.16          0.0600            0.0000          24.5833       PFind                   None            0.00    0.00    None
 18.0000         4.9240           0.0000          0.0000           100.83         5.40          0.0200            0.0000          14.1167       PFind                   None            0.00    0.00    None
 18.6600         4.7513           0.0000          0.0000            41.67         2.23          0.0800            0.0000           6.6667       PFind                   None            0.00    0.00    None
 21.0200         4.2229           0.0000          0.0000           399.17        21.37          0.1200            0.0000          39.9167       PFind                   None            0.00    0.00    None
 23.0200         3.8603           0.0000          0.0000            37.50         2.01          0.1600            0.0000           0.7500       PFind                   None            0.00    0.00    None
 23.6400         3.7604           0.0000          0.0000            68.33         3.66          0.1600            0.0000           6.8333       PFind                   None            0.00    0.00    None
 24.2800         3.6628           0.0000          0.0000            97.50         5.22          0.1000            0.0000           9.7500       PFind                   None            0.00    0.00    None
 24.7600         3.5928           0.0000          0.0000           160.83         8.61          0.1000            0.0000          25.7333       PFind                   None            0.00    0.00    None
 25.6600         3.4688           0.0000          0.0000           100.00         5.35          0.0600            0.0000          14.0000       PFind                   None            0.00    0.00    None
 27.0400         3.2948           0.0000          0.0000           420.00        22.49          0.0400            0.0000          67.2000       PFind                   None            0.00    0.00    None
 28.0000         3.1840           0.0000          0.0000           230.83        12.36          0.0200            0.0000          36.9333       PFind                   None            0.00    0.00    None
 28.7600         3.1016           0.0000          0.0000            88.33         4.73          0.1000            0.0000          14.1333       PFind                   None            0.00    0.00    None
 30.2600         2.9512           0.0000          0.0000           144.17         7.72          0.0400            0.0000          14.4167       PFind                   None            0.00    0.00    None
 30.9800         2.8842           0.0000          0.0000            34.17         1.83          0.0800            0.0000           4.7833       PFind                   None            0.00    0.00    None
 31.7200         2.8186           0.0000          0.0000            51.67         2.77          0.0800            0.0000           4.1333       PFind                   None            0.00    0.00    None
 33.2200         2.6947           0.0000          0.0000            39.17         2.10          0.1200            0.0000           2.3500       PFind                   None            0.00    0.00    None
 35.1000         2.5545           0.0000          0.0000            52.50         2.81          0.1000            0.0000           8.4000       PFind                   None            0.00    0.00    None
 36.2200         2.4780           0.0000          0.0000            40.00         2.14          0.0600            0.0000           2.4000       PFind                   None            0.00    0.00    None
 37.5600         2.3927           0.0000          0.0000            41.67         2.23          0.1600            0.0000           6.6667       PFind                   None            0.00    0.00    None
 38.9200         2.3121           0.0000          0.0000            39.17         2.10          0.0600            0.0000           3.1333       PFind                   None            0.00    0.00    None
 40.0800         2.2478           0.0000          0.0000            51.67         2.77          0.1000            0.0000           5.1667       PFind                   None            0.00    0.00    None
 42.1200         2.1436           0.0000          0.0000            36.67         1.96          0.1600            0.0000           2.2000       PFind                   None            0.00    0.00    None
 45.0400         2.0111           0.0000          0.0000            45.00         2.41          0.0600            0.0000           3.6000       PFind                   None            0.00    0.00    None
 45.4000         1.9960           0.0000          0.0000            39.17         2.10          0.0800            0.0000           4.7000       PFind                   None            0.00    0.00    None
 45.9200         1.9746           0.0000          0.0000           177.50         9.50          0.1200            0.0000          21.3000       PFind                   None            0.00    0.00    None
 48.2600         1.8842           0.0000          0.0000            39.17         2.10          0.1400            0.0000           4.7000       PFind                   None            0.00    0.00    None
 49.9000         1.8261           0.0000          0.0000            34.17         1.83          0.1000            0.0000           5.4667       PFind                   None            0.00    0.00    None
 50.2800         1.8131           0.0000          0.0000           255.83        13.70          0.0600            0.0000          25.5833       PFind                   None            0.00    0.00    None
 55.0200         1.6676           0.0000          0.0000           129.17         6.92          0.0800            0.0000           7.7500       PFind                   None            0.00    0.00    None
 55.9000         1.6434           0.0000          0.0000            42.50         2.28          0.1600            0.0000           5.9500       PFind                   None            0.00    0.00    None
 64.0400         1.4528           0.0000          0.0000            42.50         2.28          0.0600            0.0000           4.2500       PFind                   None            0.00    0.00    None
 64.1400         1.4507           0.0000          0.0000            49.17         2.63          0.0800            0.0000           3.9333       PFind                   None            0.00    0.00    None

File: 1_2_SEPT_PF_FILTER.txt
Filename:
	C:\Program Files\Thermo Electron\WinXRD\Datafiles\FIEN\1_2_SEPT_FT.pk

File Created:
	April 15, 2019 - 02:55 PM

Specimen Id:
	1.2 SEPT FT

Specimen Name:

Specimen Description:

Comment:
Scan Type: 2Theta Scan
Start Angle: 1 deg.
Stop Angle: 65 deg.
Num Points: 3201
Step Size: 0.02 deg.
Scan Rate: 1.000000
Scan Mode: Continuous
Wavelength: 1.540562
\Kalpha1: 1.540562	\Kalpha2: 1.544390	\Kbeta: 1.392218

Optics:
		Detector:
			 Type: Fixed Slits
		Tube:
			 Type: Fixed Slits

Datas:
Peaks:

Position        Dspace          ESD(P)          Corr.Fact       Intensity       Rel.Int.        FWHM(L)         ESD(L)          Area            Source                  Curve           Strain  CSize   CSize_Source
[deg]           [A]             [deg]           [deg]           [CPS]           [CPS]           [deg]           [deg]           [deg]           [--]                    [--]            [--]    [--]    [--]
  2.6400        33.4377           0.0000          0.0000            80.00         5.30          0.1400            0.0000           3.2000       PFind                   None            0.00    0.00    None
  2.9800        29.6234           0.0000          0.0000            77.50         5.14          0.1200            0.0000           4.6500       PFind                   None            0.00    0.00    None
  3.2000        27.5872           0.0000          0.0000            50.83         3.37          0.1600            0.0000           3.0500       PFind                   None            0.00    0.00    None
  3.4600        25.5148           0.0000          0.0000            42.50         2.82          0.1400            0.0000           3.4000       PFind                   None            0.00    0.00    None
  4.0800        21.6388           0.0000          0.0000            43.33         2.87          0.0600            0.0000           3.4667       PFind                   None            0.00    0.00    None
  4.4200        19.9750           0.0000          0.0000            37.50         2.49          0.0600            0.0000           0.7500       PFind                   None            0.00    0.00    None
  6.2800        14.0624           0.0000          0.0000           163.33        10.83          0.1000            0.0000          22.8667       PFind                   None            0.00    0.00    None
  6.7400        13.1037           0.0000          0.0000            66.67         4.42          0.0800            0.0000           8.0000       PFind                   None            0.00    0.00    None
  8.3200        10.6184           0.0000          0.0000            60.00         3.98          0.0400            0.0000           1.2000       PFind                   None            0.00    0.00    None
  9.2200         9.5838           0.0000          0.0000            71.67         4.75          0.1200            0.0000          10.0333       PFind                   None            0.00    0.00    None
 10.5600         8.3705           0.0000          0.0000           120.83         8.01          0.1200            0.0000          12.0833       PFind                   None            0.00    0.00    None
 12.5400         7.0530           0.0000          0.0000           619.17        41.05          0.0600            0.0000          74.3000       PFind                   None            0.00    0.00    None
 15.0200         5.8935           0.0000          0.0000            37.50         2.49          0.0600            0.0000           3.7500       PFind                   None            0.00    0.00    None
 18.6000         4.7665           0.0000          0.0000            94.17         6.24          0.1000            0.0000          15.0667       PFind                   None            0.00    0.00    None
 19.9200         4.4535           0.0000          0.0000            36.67         2.43          0.0600            0.0000           5.8667       PFind                   None            0.00    0.00    None
 22.0600         4.0261           0.0000          0.0000           240.00        15.91          0.0000            0.0000          19.2000       PFind                   None            0.00    0.00    None
 23.0400         3.8570           0.0000          0.0000            56.67         3.76          0.1400            0.0000           5.6667       PFind                   None            0.00    0.00    None
 23.9000         3.7201           0.0000          0.0000            93.33         6.19          0.1200            0.0000           3.7333       PFind                   None            0.00    0.00    None
 24.6400         3.6100           0.0000          0.0000           328.33        21.77          0.1200            0.0000          52.5333       PFind                   None            0.00    0.00    None
 25.5000         3.4902           0.0000          0.0000            95.83         6.35          0.1000            0.0000          15.3333       PFind                   None            0.00    0.00    None
 26.9000         3.3117           0.0000          0.0000          1190.00        78.90          0.0800            0.0000         166.6000       PFind                   None            0.00    0.00    None
 27.7600         3.2110           0.0000          0.0000           378.33        25.08          0.0400            0.0000          37.8333       PFind                   None            0.00    0.00    None
 28.6800         3.1100           0.0000          0.0000           130.00         8.62          0.1000            0.0000          20.8000       PFind                   None            0.00    0.00    None
 30.2200         2.9550           0.0000          0.0000           104.17         6.91          0.0800            0.0000           2.0833       PFind                   None            0.00    0.00    None
 31.2400         2.8608           0.0000          0.0000           110.83         7.35          0.1000            0.0000          11.0833       PFind                   None            0.00    0.00    None
 31.8800         2.8048           0.0000          0.0000            41.67         2.76          0.0800            0.0000           0.0000       PFind                   None            0.00    0.00    None
 32.2400         2.7743           0.0000          0.0000            62.50         4.14          0.0400            0.0000           8.7500       PFind                   None            0.00    0.00    None
 33.9400         2.6391           0.0000          0.0000            49.17         3.26          0.0600            0.0000           1.9667       PFind                   None            0.00    0.00    None
 34.7200         2.5816           0.0000          0.0000            63.33         4.20          0.1400            0.0000           2.5333       PFind                   None            0.00    0.00    None
 35.7000         2.5129           0.0000          0.0000            85.83         5.69          0.1600            0.0000           6.8667       PFind                   None            0.00    0.00    None
 36.5600         2.4558           0.0000          0.0000           147.50         9.78          0.1600            0.0000          14.7500       PFind                   None            0.00    0.00    None
 38.1200         2.3588           0.0000          0.0000           997.50        66.13          0.0600            0.0000          59.8500       PFind                   None            0.00    0.00    None
 40.3400         2.2339           0.0000          0.0000            62.50         4.14          0.1000            0.0000           5.0000       PFind                   None            0.00    0.00    None
 42.4600         2.1272           0.0000          0.0000            92.50         6.13          0.0400            0.0000          11.1000       PFind                   None            0.00    0.00    None
 45.6200         1.9869           0.0000          0.0000           340.83        22.60          0.1400            0.0000          54.5333       PFind                   None            0.00    0.00    None
 48.1800         1.8872           0.0000          0.0000           109.17         7.24          0.1600            0.0000           6.5500       PFind                   None            0.00    0.00    None
 50.1800         1.8165           0.0000          0.0000           215.00        14.25          0.1400            0.0000          12.9000       PFind                   None            0.00    0.00    None
 54.8800         1.6715           0.0000          0.0000            75.83         5.03          0.1400            0.0000           6.0667       PFind                   None            0.00    0.00    None
 55.3600         1.6582           0.0000          0.0000            38.33         2.54          0.0600            0.0000           5.3667       PFind                   None            0.00    0.00    None
 59.2000         1.5595           0.0000          0.0000            62.50         4.14          0.1400            0.0000           3.7500       PFind                   None            0.00    0.00    None
 60.0000         1.5406           0.0000          0.0000           141.67         9.39          0.1000            0.0000           8.5000       PFind                   None            0.00    0.00    None
 64.4400         1.4447           0.0000          0.0000           401.67        26.63          0.0200            0.0000          24.1000       PFind                   None            0.00    0.00    None
 64.6200         1.4411           0.0000          0.0000           226.67        15.03          0.0200            0.0000          13.6000       PFind                   None            0.00    0.00    None

File: 1_5_SEPT.txt
Position	Dspace	ESD(P)	Corr.Fact	Intensity	Rel.Int.	FWHM(L)	ESD(L)	Area
[deg]	[A]	[deg]	[deg]	[CPS]	[CPS]	[deg]	[deg]	[deg]
2.7400	32.2176	0.0000	0.0000	47.50	2.71	0.1200	0.0000	5.7000
2.8600	30.8660	0.0000	0.0000	40.00	2.28	0.0400	0.0000	4.0000
3.0800	28.6618	0.0000	0.0000	60.00	3.42	0.1400	0.0000	2.4000
3.2000	27.5872	0.0000	0.0000	62.50	3.57	0.1600	0.0000	5.0000
3.5800	24.6598	0.0000	0.0000	44.17	2.52	0.0200	0.0000	1.7667
3.8200	23.1110	0.0000	0.0000	45.00	2.57	0.0800	0.0000	0.9000
4.0200	21.9616	0.0000	0.0000	45.00	2.57	0.1400	0.0000	0.0000
9.1600	9.6465	0.0000	0.0000	95.83	5.47	0.1400	0.0000	9.5833
12.4800	7.0867	0.0000	0.0000	89.17	5.09	0.1600	0.0000	12.4833
12.7600	6.9318	0.0000	0.0000	64.17	3.66	0.1600	0.0000	6.4167
18.1200	4.8916	0.0000	0.0000	61.67	3.52	0.1000	0.0000	8.6333
20.1400	4.4054	0.0000	0.0000	55.83	3.19	0.1400	0.0000	8.9333
21.1800	4.1913	0.0000	0.0000	229.17	13.08	0.0200	0.0000	27.5000
22.3600	3.9727	0.0000	0.0000	481.67	27.48	0.0400	0.0000	38.5333
23.2400	3.8243	0.0000	0.0000	61.67	3.52	0.1200	0.0000	6.1667
23.9200	3.7171	0.0000	0.0000	333.33	19.02	0.0800	0.0000	33.3333
24.6200	3.6129	0.0000	0.0000	91.67	5.23	0.1200	0.0000	12.8333
24.9000	3.5729	0.0000	0.0000	76.67	4.37	0.1600	0.0000	10.7333
25.4400	3.4983	0.0000	0.0000	75.00	4.28	0.1200	0.0000	9.0000
25.7800	3.4529	0.0000	0.0000	100.00	5.71	0.1000	0.0000	16.0000
26.9600	3.3044	0.0000	0.0000	1752.50	100.00	0.1200	0.0000	210.3000
27.7800	3.2087	0.0000	0.0000	70.00	3.99	0.1000	0.0000	11.2000
28.1800	3.1641	0.0000	0.0000	611.67	34.90	0.1000	0.0000	61.1667
28.9800	3.0785	0.0000	0.0000	73.33	4.18	0.1400	0.0000	8.8000
30.1800	2.9588	0.0000	0.0000	106.67	6.09	0.1600	0.0000	17.0667
30.5600	2.9229	0.0000	0.0000	48.33	2.76	0.0000	0.0000	5.8000
30.7200	2.9080	0.0000	0.0000	74.17	4.23	0.1400	0.0000	10.3833
31.5800	2.8307	0.0000	0.0000	71.67	4.09	0.0200	0.0000	10.0333
32.2800	2.7709	0.0000	0.0000	94.17	5.37	0.1600	0.0000	1.8833
32.3400	2.7659	0.0000	0.0000	83.33	4.76	0.1200	0.0000	8.3333
34.2000	2.6196	0.0000	0.0000	40.00	2.28	0.1600	0.0000	2.4000
34.8400	2.5730	0.0000	0.0000	141.67	8.08	0.1000	0.0000	19.8333
35.2600	2.5433	0.0000	0.0000	100.83	5.75	0.0800	0.0000	16.1333
35.5400	2.5239	0.0000	0.0000	105.83	6.04	0.1200	0.0000	12.7000
35.8800	2.5007	0.0000	0.0000	69.17	3.95	0.0600	0.0000	11.0667
36.8000	2.4403	0.0000	0.0000	181.67	10.37	0.1000	0.0000	14.5333
37.7400	2.3817	0.0000	0.0000	61.67	3.52	0.1600	0.0000	9.8667
37.9800	2.3672	0.0000	0.0000	66.67	3.80	0.1400	0.0000	10.6667
39.7200	2.2674	0.0000	0.0000	85.00	4.85	0.1000	0.0000	10.2000
40.5200	2.2244	0.0000	0.0000	55.00	3.14	0.1600	0.0000	5.5000
41.5400	2.1721	0.0000	0.0000	55.83	3.19	0.1400	0.0000	7.8167
42.2600	2.1368	0.0000	0.0000	60.00	3.42	0.1400	0.0000	8.4000
42.6800	2.1167	0.0000	0.0000	114.17	6.51	0.1400	0.0000	15.9833
45.4200	1.9952	0.0000	0.0000	43.33	2.47	0.1000	0.0000	6.0667
45.7800	1.9803	0.0000	0.0000	97.50	5.56	0.1400	0.0000	15.6000
46.0600	1.9690	0.0000	0.0000	99.17	5.66	0.1000	0.0000	9.9167
48.3800	1.8798	0.0000	0.0000	45.83	2.62	0.0800	0.0000	0.0000
50.0200	1.8220	0.0000	0.0000	65.00	3.71	0.1600	0.0000	2.6000
50.1800	1.8165	0.0000	0.0000	47.50	2.71	0.1600	0.0000	7.6000
50.4000	1.8091	0.0000	0.0000	222.50	12.70	0.0000	0.0000	26.7000
50.8400	1.7945	0.0000	0.0000	174.17	9.94	0.1400	0.0000	20.9000
55.1000	1.6654	0.0000	0.0000	94.17	5.37	0.1200	0.0000	7.5333
55.2200	1.6621	0.0000	0.0000	62.50	3.57	0.0800	0.0000	10.0000
55.5800	1.6521	0.0000	0.0000	45.00	2.57	0.1600	0.0000	6.3000
56.1000	1.6381	0.0000	0.0000	50.83	2.90	0.1000	0.0000	4.0667
59.4200	1.5542	0.0000	0.0000	41.67	2.38	0.0600	0.0000	0.8333
60.2000	1.5359	0.0000	0.0000	243.33	13.88	0.0400	0.0000	24.3333
61.0600	1.5163	0.0000	0.0000	47.50	2.71	0.0400	0.0000	2.8500
61.7400	1.5013	0.0000	0.0000	64.17	3.66	0.1200	0.0000	10.2667
64.3000	1.4475	0.0000	0.0000	46.67	2.66	0.1200	0.0000	1.8667