Folder: Non-Linear-XRD-Inversion/Generating XRD fingerprints/INPUT/Detrital data (part 7)

File: 7_2_AUG_PF_FILTER.txt
Filename:
	C:\Program Files\Thermo Electron\WinXRD\Datafiles\FIEN\7_2_AUG_FILTER.pk

File Created:
	April 15, 2019 - 03:08 PM

Specimen Id:
	7.2 AUGUST FILTER

Specimen Name:

Specimen Description:

Comment:
Scan Type: 2Theta Scan
Start Angle: 1 deg.
Stop Angle: 50 deg.
Num Points: 2451
Step Size: 0.02 deg.
Scan Rate: 1.000000
Scan Mode: Continuous
Wavelength: 1.540562
\Kalpha1: 1.540562	\Kalpha2: 1.544390	\Kbeta: 1.392218

Optics:
		Detector:
			 Type: Fixed Slits
		Tube:
			 Type: Fixed Slits

Datas:
Peaks:

Position        Dspace          ESD(P)          Corr.Fact       Intensity       Rel.Int.        FWHM(L)         ESD(L)          Area            Source                  Curve           Strain  CSize   CSize_Source
[deg]           [A]             [deg]           [deg]           [CPS]           [CPS]           [deg]           [deg]           [deg]           [--]                    [--]            [--]    [--]    [--]
  6.3800        13.8422           0.0000          0.0000           126.67         6.89          0.0800            0.0000          17.7333       PFind                   None            0.00    0.00    None
  9.0200         9.7959           0.0000          0.0000           636.67        34.62          0.1400            0.0000          50.9333       PFind                   None            0.00    0.00    None
 12.3400         7.1668           0.0000          0.0000           280.00        15.22          0.1200            0.0000          33.6000       PFind                   None            0.00    0.00    None
 12.6400         6.9974           0.0000          0.0000           374.17        20.34          0.1000            0.0000          52.3833       PFind                   None            0.00    0.00    None
 18.0000         4.9240           0.0000          0.0000           235.00        12.78          0.1400            0.0000          23.5000       PFind                   None            0.00    0.00    None
 18.9600         4.6768           0.0000          0.0000           156.67         8.52          0.1000            0.0000          21.9333       PFind                   None            0.00    0.00    None
 21.0600         4.2149           0.0000          0.0000           433.33        23.56          0.1400            0.0000          43.3333       PFind                   None            0.00    0.00    None
 22.2000         4.0010           0.0000          0.0000           125.00         6.80          0.1200            0.0000          12.5000       PFind                   None            0.00    0.00    None
 24.7600         3.5928           0.0000          0.0000           249.17        13.55          0.1000            0.0000          39.8667       PFind                   None            0.00    0.00    None
 25.3200         3.5146           0.0000          0.0000           312.50        16.99          0.1600            0.0000          37.5000       PFind                   None            0.00    0.00    None
 25.5600         3.4822           0.0000          0.0000            96.67         5.26          0.0600            0.0000           9.6667       PFind                   None            0.00    0.00    None
 26.8200         3.3214           0.0000          0.0000          1839.17       100.00          0.1400            0.0000         183.9167       PFind                   None            0.00    0.00    None
 27.0600         3.2924           0.0000          0.0000           795.83        43.27          0.1200            0.0000         111.4167       PFind                   None            0.00    0.00    None
 27.5800         3.2315           0.0000          0.0000           108.33         5.89          0.0200            0.0000          17.3333       PFind                   None            0.00    0.00    None
 27.7000         3.2178           0.0000          0.0000           175.00         9.52          0.0600            0.0000          24.5000       PFind                   None            0.00    0.00    None
 28.0400         3.1796           0.0000          0.0000           495.00        26.91          0.1000            0.0000          59.4000       PFind                   None            0.00    0.00    None
 28.8000         3.0974           0.0000          0.0000            95.00         5.17          0.1600            0.0000           5.7000       PFind                   None            0.00    0.00    None
 30.6200         2.9173           0.0000          0.0000            87.50         4.76          0.0200            0.0000           8.7500       PFind                   None            0.00    0.00    None
 30.9800         2.8842           0.0000          0.0000           154.17         8.38          0.0400            0.0000           6.1667       PFind                   None            0.00    0.00    None
 35.6400         2.5170           0.0000          0.0000           110.00         5.98          0.0400            0.0000          15.4000       PFind                   None            0.00    0.00    None
 36.7200         2.4454           0.0000          0.0000           218.33        11.87          0.1200            0.0000          17.4667       PFind                   None            0.00    0.00    None
 38.2600         2.3505           0.0000          0.0000           955.83        51.97          0.0800            0.0000         114.7000       PFind                   None            0.00    0.00    None
 39.0000         2.3076           0.0000          0.0000            87.50         4.76          0.0800            0.0000           3.5000       PFind                   None            0.00    0.00    None
 39.6400         2.2718           0.0000          0.0000            99.17         5.39          0.0600            0.0000           1.9833       PFind                   None            0.00    0.00    None
 40.4600         2.2276           0.0000          0.0000           218.33        11.87          0.1400            0.0000          13.1000       PFind                   None            0.00    0.00    None
 42.8200         2.1101           0.0000          0.0000           129.17         7.02          0.1400            0.0000           7.7500       PFind                   None            0.00    0.00    None
 44.4800         2.0352           0.0000          0.0000           412.50        22.43          0.1000            0.0000          66.0000       PFind                   None            0.00    0.00    None
 45.7600         1.9812           0.0000          0.0000           249.17        13.55          0.1000            0.0000          39.8667       PFind                   None            0.00    0.00    None
 45.9600         1.9730           0.0000          0.0000           234.17        12.73          0.1600            0.0000          18.7333       PFind                   None            0.00    0.00    None
 48.7400         1.8668           0.0000          0.0000            95.00         5.17          0.1600            0.0000           1.9000       PFind                   None            0.00    0.00    None

File: 9_2_AUG.txt
Position	Dspace	ESD(P)	Corr.Fact	Intensity	Rel.Int.	FWHM(L)	ESD(L)	Area
[deg]	[A]	[deg]	[deg]	[CPS]	[CPS]	[deg]	[deg]	[deg]
2.6800	32.9387	0.0000	0.0000	69.17	3.28	0.0400	0.0000	5.5333
2.9200	30.2319	0.0000	0.0000	65.00	3.09	0.1400	0.0000	10.4000
3.0000	29.4259	0.0000	0.0000	70.00	3.32	0.1000	0.0000	5.6000
3.1000	28.4769	0.0000	0.0000	60.83	2.89	0.0600	0.0000	6.0833
3.3000	26.7515	0.0000	0.0000	75.83	3.60	0.0200	0.0000	6.0667
3.4400	25.6631	0.0000	0.0000	68.33	3.24	0.1200	0.0000	4.1000
3.6000	24.5228	0.0000	0.0000	69.17	3.28	0.1000	0.0000	5.5333
3.8800	22.7538	0.0000	0.0000	53.33	2.53	0.0600	0.0000	4.2667
4.1000	21.5333	0.0000	0.0000	41.67	1.98	0.0600	0.0000	4.1667
4.6200	19.1107	0.0000	0.0000	48.33	2.30	0.1600	0.0000	1.9333
4.6800	18.8659	0.0000	0.0000	54.17	2.57	0.1400	0.0000	1.0833
4.8000	18.3945	0.0000	0.0000	42.50	2.02	0.0800	0.0000	1.7000
5.5400	15.9390	0.0000	0.0000	44.17	2.10	0.1200	0.0000	0.0000
5.7600	15.3307	0.0000	0.0000	41.67	1.98	0.1400	0.0000	1.6667
5.9600	14.8167	0.0000	0.0000	144.17	6.85	0.1400	0.0000	20.1833
6.5800	13.4219	0.0000	0.0000	41.67	1.98	0.0600	0.0000	0.0000
8.6600	10.2023	0.0000	0.0000	440.00	20.89	0.0800	0.0000	35.2000
9.2400	9.5631	0.0000	0.0000	109.17	5.18	0.1000	0.0000	8.7333
10.3000	8.5812	0.0000	0.0000	246.67	11.71	0.0000	0.0000	24.6667
12.0000	7.3691	0.0000	0.0000	772.50	36.68	0.1000	0.0000	61.8000
12.1400	7.2844	0.0000	0.0000	345.00	16.38	0.1000	0.0000	55.2000
17.6000	5.0350	0.0000	0.0000	270.83	12.86	0.0400	0.0000	27.0833
18.3800	4.8230	0.0000	0.0000	254.17	12.07	0.1400	0.0000	30.5000
20.6400	4.2997	0.0000	0.0000	1237.50	58.77	0.1600	0.0000	74.2500
21.8400	4.0661	0.0000	0.0000	110.00	5.22	0.1200	0.0000	11.0000
22.8600	3.8870	0.0000	0.0000	47.50	2.26	0.1600	0.0000	2.8500
23.3200	3.8113	0.0000	0.0000	76.67	3.64	0.1600	0.0000	7.6667
23.6200	3.7636	0.0000	0.0000	77.50	3.68	0.1600	0.0000	3.1000
23.9600	3.7109	0.0000	0.0000	120.83	5.74	0.1400	0.0000	12.0833
24.4000	3.6450	0.0000	0.0000	601.67	28.57	0.0600	0.0000	84.2333
24.6000	3.6158	0.0000	0.0000	280.83	13.34	0.0000	0.0000	44.9333
24.9400	3.5673	0.0000	0.0000	213.33	10.13	0.0800	0.0000	29.8667
25.2000	3.5311	0.0000	0.0000	101.67	4.83	0.1000	0.0000	12.2000
25.4200	3.5010	0.0000	0.0000	181.67	8.63	0.1000	0.0000	18.1667
26.4200	3.3707	0.0000	0.0000	2105.83	100.00	0.0800	0.0000	210.5833
26.6600	3.3409	0.0000	0.0000	691.67	32.85	0.0800	0.0000	83.0000
27.2200	3.2734	0.0000	0.0000	182.50	8.67	0.1600	0.0000	18.2500
27.6200	3.2269	0.0000	0.0000	919.17	43.65	0.0800	0.0000	110.3000
28.1000	3.1729	0.0000	0.0000	155.00	7.36	0.0600	0.0000	15.5000
28.4800	3.1314	0.0000	0.0000	220.83	10.49	0.0800	0.0000	35.3333
29.7000	3.0055	0.0000	0.0000	43.33	2.06	0.0800	0.0000	6.9333
30.0400	2.9723	0.0000	0.0000	401.67	19.07	0.0800	0.0000	8.0333
30.2400	2.9531	0.0000	0.0000	71.67	3.40	0.0600	0.0000	8.6000
30.6400	2.9154	0.0000	0.0000	74.17	3.52	0.1200	0.0000	4.4500
31.0200	2.8806	0.0000	0.0000	96.67	4.59	0.1200	0.0000	15.4667
31.2000	2.8644	0.0000	0.0000	201.67	9.58	0.1000	0.0000	20.1667
32.0600	2.7895	0.0000	0.0000	150.83	7.16	0.0400	0.0000	15.0833
32.8800	2.7217	0.0000	0.0000	80.83	3.84	0.1000	0.0000	3.2333
34.7800	2.5773	0.0000	0.0000	44.17	2.10	0.0600	0.0000	5.3000
35.3200	2.5391	0.0000	0.0000	168.33	7.99	0.1000	0.0000	23.5667
35.8600	2.5021	0.0000	0.0000	41.67	1.98	0.0600	0.0000	5.8333
36.3400	2.4701	0.0000	0.0000	135.83	6.45	0.1600	0.0000	8.1500
36.9400	2.4314	0.0000	0.0000	58.33	2.77	0.0800	0.0000	4.6667
37.5400	2.3939	0.0000	0.0000	55.00	2.61	0.1600	0.0000	8.8000
37.8800	2.3732	0.0000	0.0000	288.33	13.69	0.0200	0.0000	40.3667
39.2600	2.2929	0.0000	0.0000	144.17	6.85	0.1000	0.0000	8.6500
40.0800	2.2478	0.0000	0.0000	152.50	7.24	0.1000	0.0000	15.2500
41.5600	2.1711	0.0000	0.0000	42.50	2.02	0.1200	0.0000	6.8000
41.6200	2.1682	0.0000	0.0000	48.33	2.30	0.1600	0.0000	7.7333
42.2400	2.1378	0.0000	0.0000	285.00	13.53	0.0400	0.0000	11.4000
44.0800	2.0527	0.0000	0.0000	173.33	8.23	0.0600	0.0000	27.7333
44.4200	2.0378	0.0000	0.0000	45.83	2.18	0.1600	0.0000	5.5000
44.7200	2.0248	0.0000	0.0000	45.83	2.18	0.1400	0.0000	6.4167
45.3800	1.9969	0.0000	0.0000	290.00	13.77	0.0400	0.0000	46.4000
46.9000	1.9356	0.0000	0.0000	70.00	3.32	0.1600	0.0000	4.2000
47.9400	1.8960	0.0000	0.0000	47.50	2.26	0.0400	0.0000	5.7000
48.0600	1.8916	0.0000	0.0000	45.83	2.18	0.1200	0.0000	3.6667
49.7400	1.8316	0.0000	0.0000	40.83	1.94	0.1400	0.0000	4.9000
49.9600	1.8240	0.0000	0.0000	198.33	9.42	0.0800	0.0000	15.8667
50.4200	1.8084	0.0000	0.0000	83.33	3.96	0.1200	0.0000	5.0000
52.3000	1.7478	0.0000	0.0000	63.33	3.01	0.1400	0.0000	3.8000
54.6600	1.6778	0.0000	0.0000	51.67	2.45	0.1000	0.0000	7.2333
59.7600	1.5462	0.0000	0.0000	93.33	4.43	0.1000	0.0000	5.6000
60.4600	1.5299	0.0000	0.0000	40.83	1.94	0.1000	0.0000	4.0833
64.2200	1.4491	0.0000	0.0000	179.17	8.51	0.1200	0.0000	25.0833

File: 9_2_AUG_PF_RT.txt
Filename:
	C:\Program Files\Thermo Electron\WinXRD\Datafiles\FIEN\9_2_AUG_P_RT.pk

File Created:
	April 15, 2019 - 03:10 PM

Specimen Id:
	9.2 AUGUST FILTER

Specimen Name:

Specimen Description:

Comment:
Scan Type: 2Theta Scan
Start Angle: 1 deg.
Stop Angle: 65 deg.
Num Points: 3201
Step Size: 0.02 deg.
Scan Rate: 1.000000
Scan Mode: Continuous
Wavelength: 1.540562
\Kalpha1: 1.540562	\Kalpha2: 1.544390	\Kbeta: 1.392218

Optics:
		Detector:
			 Type: Fixed Slits
		Tube:
			 Type: Fixed Slits

Datas:
Peaks:

Position        Dspace          ESD(P)          Corr.Fact       Intensity       Rel.Int.        FWHM(L)         ESD(L)          Area            Source                  Curve           Strain  CSize   CSize_Source
[deg]           [A]             [deg]           [deg]           [CPS]           [CPS]           [deg]           [deg]           [deg]           [--]                    [--]            [--]    [--]    [--]
  2.6800        32.9387           0.0000          0.0000            69.17         3.28          0.0400            0.0000           5.5333       PFind                   None            0.00    0.00    None
  3.0000        29.4259           0.0000          0.0000            70.00         3.32          0.1000            0.0000           5.6000       PFind                   None            0.00    0.00    None
  3.3000        26.7515           0.0000          0.0000            75.83         3.60          0.0200            0.0000           6.0667       PFind                   None            0.00    0.00    None
  3.6000        24.5228           0.0000          0.0000            69.17         3.28          0.1000            0.0000           5.5333       PFind                   None            0.00    0.00    None
  4.1000        21.5333           0.0000          0.0000            41.67         1.98          0.0600            0.0000           4.1667       PFind                   None            0.00    0.00    None
  4.6800        18.8659           0.0000          0.0000            54.17         2.57          0.1400            0.0000           1.0833       PFind                   None            0.00    0.00    None
  5.5400        15.9390           0.0000          0.0000            44.17         2.10          0.1200            0.0000           0.0000       PFind                   None            0.00    0.00    None
  5.9600        14.8167           0.0000          0.0000           144.17         6.85          0.1400            0.0000          20.1833       PFind                   None            0.00    0.00    None
  8.6600        10.2023           0.0000          0.0000           440.00        20.89          0.0800            0.0000          35.2000       PFind                   None            0.00    0.00    None
 10.3000         8.5812           0.0000          0.0000           246.67        11.71          0.0000            0.0000          24.6667       PFind                   None            0.00    0.00    None
 12.1400         7.2844           0.0000          0.0000           345.00        16.38          0.1000            0.0000          55.2000       PFind                   None            0.00    0.00    None
 18.3800         4.8230           0.0000          0.0000           254.17        12.07          0.1400            0.0000          30.5000       PFind                   None            0.00    0.00    None
 21.8400         4.0661           0.0000          0.0000           110.00         5.22          0.1200            0.0000          11.0000       PFind                   None            0.00    0.00    None
 23.3200         3.8113           0.0000          0.0000            76.67         3.64          0.1600            0.0000           7.6667       PFind                   None            0.00    0.00    None
 23.9600         3.7109           0.0000          0.0000           120.83         5.74          0.1400            0.0000          12.0833       PFind                   None            0.00    0.00    None
 24.6000         3.6158           0.0000          0.0000           280.83        13.34          0.0000            0.0000          44.9333       PFind                   None            0.00    0.00    None
 25.2000         3.5311           0.0000          0.0000           101.67         4.83          0.1000            0.0000          12.2000       PFind                   None            0.00    0.00    None
 26.4200         3.3707           0.0000          0.0000          2105.83       100.00          0.0800            0.0000         210.5833       PFind                   None            0.00    0.00    None
 27.2200         3.2734           0.0000          0.0000           182.50         8.67          0.1600            0.0000          18.2500       PFind                   None            0.00    0.00    None
 28.1000         3.1729           0.0000          0.0000           155.00         7.36          0.0600            0.0000          15.5000       PFind                   None            0.00    0.00    None
 29.7000         3.0055           0.0000          0.0000            43.33         2.06          0.0800            0.0000           6.9333       PFind                   None            0.00    0.00    None
 30.2400         2.9531           0.0000          0.0000            71.67         3.40          0.0600            0.0000           8.6000       PFind                   None            0.00    0.00    None
 31.0200         2.8806           0.0000          0.0000            96.67         4.59          0.1200            0.0000          15.4667       PFind                   None            0.00    0.00    None
 32.0600         2.7895           0.0000          0.0000           150.83         7.16          0.0400            0.0000          15.0833       PFind                   None            0.00    0.00    None
 34.7800         2.5773           0.0000          0.0000            44.17         2.10          0.0600            0.0000           5.3000       PFind                   None            0.00    0.00    None
 35.8600         2.5021           0.0000          0.0000            41.67         1.98          0.0600            0.0000           5.8333       PFind                   None            0.00    0.00    None
 36.9400         2.4314           0.0000          0.0000            58.33         2.77          0.0800            0.0000           4.6667       PFind                   None            0.00    0.00    None
 37.8800         2.3732           0.0000          0.0000           288.33        13.69          0.0200            0.0000          40.3667       PFind                   None            0.00    0.00    None
 40.0800         2.2478           0.0000          0.0000           152.50         7.24          0.1000            0.0000          15.2500       PFind                   None            0.00    0.00    None
 41.6200         2.1682           0.0000          0.0000            48.33         2.30          0.1600            0.0000           7.7333       PFind                   None            0.00    0.00    None
 44.0800         2.0527           0.0000          0.0000           173.33         8.23          0.0600            0.0000          27.7333       PFind                   None            0.00    0.00    None
 44.7200         2.0248           0.0000          0.0000            45.83         2.18          0.1400            0.0000           6.4167       PFind                   None            0.00    0.00    None
 46.9000         1.9356           0.0000          0.0000            70.00         3.32          0.1600            0.0000           4.2000       PFind                   None            0.00    0.00    None
 48.0600         1.8916           0.0000          0.0000            45.83         2.18          0.1200            0.0000           3.6667       PFind                   None            0.00    0.00    None
 49.9600         1.8240           0.0000          0.0000           198.33         9.42          0.0800            0.0000          15.8667       PFind                   None            0.00    0.00    None
 52.3000         1.7478           0.0000          0.0000            63.33         3.01          0.1400            0.0000           3.8000       PFind                   None            0.00    0.00    None
 59.7600         1.5462           0.0000          0.0000            93.33         4.43          0.1000            0.0000           5.6000       PFind                   None            0.00    0.00    None
 64.2200         1.4491           0.0000          0.0000           179.17         8.51          0.1200            0.0000          25.0833       PFind                   None            0.00    0.00    None