Folder: Non-Linear-XRD-Inversion/Generating XRD fingerprints/INPUT/Detrital data (part 3)

File: 2_1_AUG_PF_RT.txt
Filename:
	C:\Program Files\Thermo Electron\WinXRD\Datafiles\FIEN\2_1_AUG_RT.pk

File Created:
	April 15, 2019 - 03:00 PM

Specimen Id:
	2.1 AUGUST RT

Specimen Name:

Specimen Description:

Comment:
Scan Type: 2Theta Scan
Start Angle: 1 deg.
Stop Angle: 65 deg.
Num Points: 3201
Step Size: 0.02 deg.
Scan Rate: 1.000000
Scan Mode: Continuous
Wavelength: 1.540562
\Kalpha1: 1.540562	\Kalpha2: 1.544390	\Kbeta: 1.392218

Optics:
		Detector:
			 Type: Fixed Slits
		Tube:
			 Type: Fixed Slits

Datas:
Peaks:

Position        Dspace          ESD(P)          Corr.Fact       Intensity       Rel.Int.        FWHM(L)         ESD(L)          Area            Source                  Curve           Strain  CSize   CSize_Source
[deg]           [A]             [deg]           [deg]           [CPS]           [CPS]           [deg]           [deg]           [deg]           [--]                    [--]            [--]    [--]    [--]
  2.6400        33.4377           0.0000          0.0000            61.67         3.35          0.0800            0.0000           7.4000       PFind                   None            0.00    0.00    None
  3.1400        28.1142           0.0000          0.0000            86.67         4.71          0.0600            0.0000           1.7333       PFind                   None            0.00    0.00    None
  3.6800        23.9899           0.0000          0.0000            51.67         2.81          0.1000            0.0000           5.1667       PFind                   None            0.00    0.00    None
  4.0400        21.8530           0.0000          0.0000            45.00         2.45          0.1000            0.0000           6.3000       PFind                   None            0.00    0.00    None
  4.3600        20.2498           0.0000          0.0000            41.67         2.27          0.1000            0.0000           4.1667       PFind                   None            0.00    0.00    None
  4.9000        18.0193           0.0000          0.0000            47.50         2.58          0.1200            0.0000           0.9500       PFind                   None            0.00    0.00    None
  5.4600        16.1724           0.0000          0.0000            50.00         2.72          0.0400            0.0000           1.0000       PFind                   None            0.00    0.00    None
  5.9400        14.8665           0.0000          0.0000            40.83         2.22          0.0600            0.0000           2.4500       PFind                   None            0.00    0.00    None
  6.8000        12.9882           0.0000          0.0000            41.67         2.27          0.1000            0.0000           3.3333       PFind                   None            0.00    0.00    None
  7.0200        12.5816           0.0000          0.0000            40.83         2.22          0.1200            0.0000           3.2667       PFind                   None            0.00    0.00    None
  7.9000        11.1820           0.0000          0.0000            34.17         1.86          0.1400            0.0000           0.6833       PFind                   None            0.00    0.00    None
  8.8800         9.9500           0.0000          0.0000           685.00        37.26          0.1400            0.0000          54.8000       PFind                   None            0.00    0.00    None
  9.8400         8.9813           0.0000          0.0000            35.83         1.95          0.0000            0.0000           2.1500       PFind                   None            0.00    0.00    None
 12.2000         7.2487           0.0000          0.0000           620.00        33.73          0.1000            0.0000          37.2000       PFind                   None            0.00    0.00    None
 13.8800         6.3749           0.0000          0.0000            35.83         1.95          0.1400            0.0000           2.8667       PFind                   None            0.00    0.00    None
 18.5600         4.7767           0.0000          0.0000            52.50         2.86          0.1000            0.0000           5.2500       PFind                   None            0.00    0.00    None
 19.8200         4.4757           0.0000          0.0000            98.33         5.35          0.0600            0.0000           7.8667       PFind                   None            0.00    0.00    None
 22.0600         4.0261           0.0000          0.0000            63.33         3.45          0.1200            0.0000           6.3333       PFind                   None            0.00    0.00    None
 23.0600         3.8537           0.0000          0.0000            45.83         2.49          0.1600            0.0000           4.5833       PFind                   None            0.00    0.00    None
 24.2800         3.6628           0.0000          0.0000            84.17         4.58          0.0800            0.0000           6.7333       PFind                   None            0.00    0.00    None
 24.8400         3.5814           0.0000          0.0000            64.17         3.49          0.1000            0.0000           8.9833       PFind                   None            0.00    0.00    None
 25.5000         3.4902           0.0000          0.0000           116.67         6.35          0.0200            0.0000          14.0000       PFind                   None            0.00    0.00    None
 26.6400         3.3434           0.0000          0.0000          1838.33       100.00          0.1200            0.0000         183.8333       PFind                   None            0.00    0.00    None
 27.5000         3.2408           0.0000          0.0000            67.50         3.67          0.1000            0.0000           4.0500       PFind                   None            0.00    0.00    None
 28.3200         3.1488           0.0000          0.0000            43.33         2.36          0.1000            0.0000           5.2000       PFind                   None            0.00    0.00    None
 29.8800         2.9878           0.0000          0.0000            55.83         3.04          0.1000            0.0000           5.5833       PFind                   None            0.00    0.00    None
 31.2000         2.8644           0.0000          0.0000           102.50         5.58          0.0000            0.0000          10.2500       PFind                   None            0.00    0.00    None
 33.8400         2.6467           0.0000          0.0000            56.67         3.08          0.1000            0.0000           2.2667       PFind                   None            0.00    0.00    None
 34.5800         2.5917           0.0000          0.0000            66.67         3.63          0.1000            0.0000           8.0000       PFind                   None            0.00    0.00    None
 35.3600         2.5363           0.0000          0.0000           121.67         6.62          0.0800            0.0000          12.1667       PFind                   None            0.00    0.00    None
 36.5400         2.4571           0.0000          0.0000           170.83         9.29          0.0800            0.0000          17.0833       PFind                   None            0.00    0.00    None
 37.7600         2.3804           0.0000          0.0000            55.00         2.99          0.0600            0.0000           5.5000       PFind                   None            0.00    0.00    None
 38.8000         2.3190           0.0000          0.0000            35.00         1.90          0.0600            0.0000           0.7000       PFind                   None            0.00    0.00    None
 40.3000         2.2361           0.0000          0.0000            60.00         3.26          0.1400            0.0000           3.6000       PFind                   None            0.00    0.00    None
 43.6200         2.0733           0.0000          0.0000            48.33         2.63          0.0400            0.0000           6.7667       PFind                   None            0.00    0.00    None
 44.5200         2.0334           0.0000          0.0000            95.00         5.17          0.0200            0.0000          15.2000       PFind                   None            0.00    0.00    None
 45.6000         1.9877           0.0000          0.0000          1483.33        80.69          0.0200            0.0000         118.6667       PFind                   None            0.00    0.00    None
 48.2400         1.8849           0.0000          0.0000            37.50         2.04          0.0800            0.0000           6.0000       PFind                   None            0.00    0.00    None
 50.1400         1.8179           0.0000          0.0000           260.00        14.14          0.1200            0.0000          20.8000       PFind                   None            0.00    0.00    None
 51.6600         1.7679           0.0000          0.0000            38.33         2.09          0.0800            0.0000           0.7667       PFind                   None            0.00    0.00    None
 52.2200         1.7503           0.0000          0.0000            33.33         1.81          0.1200            0.0000           2.6667       PFind                   None            0.00    0.00    None
 54.8600         1.6721           0.0000          0.0000            72.50         3.94          0.1000            0.0000           4.3500       PFind                   None            0.00    0.00    None
 55.5800         1.6521           0.0000          0.0000            40.83         2.22          0.0200            0.0000           1.6333       PFind                   None            0.00    0.00    None
 59.2200         1.5590           0.0000          0.0000            38.33         2.09          0.1200            0.0000           0.0000       PFind                   None            0.00    0.00    None
 60.1000         1.5382           0.0000          0.0000           202.50        11.02          0.0200            0.0000          12.1500       PFind                   None            0.00    0.00    None
 64.0200         1.4532           0.0000          0.0000            35.83         1.95          0.1400            0.0000           4.3000       PFind                   None            0.00    0.00    None

File: 2_2_AUG_PF_FILTER.txt
Filename:
	C:\Program Files\Thermo Electron\WinXRD\Datafiles\FIEN\22_AG_FILTER.pk

File Created:
	April 15, 2019 - 03:35 PM

Specimen Id:
	2.2 AUG FILTER

Specimen Name:

Specimen Description:

Comment:
Scan Type: 2Theta Scan
Start Angle: 1 deg.
Stop Angle: 65 deg.
Num Points: 3201
Step Size: 0.02 deg.
Scan Rate: 1.000000
Scan Mode: Continuous
Wavelength: 1.540562
\Kalpha1: 1.540562	\Kalpha2: 1.544390	\Kbeta: 1.392218

Optics:
		Detector:
			 Type: Fixed Slits
		Tube:
			 Type: Fixed Slits

Datas:
Peaks:

Position        Dspace          ESD(P)          Corr.Fact       Intensity       Rel.Int.        FWHM(L)         ESD(L)          Area            Source                  Curve           Strain  CSize   CSize_Source
[deg]           [A]             [deg]           [deg]           [CPS]           [CPS]           [deg]           [deg]           [deg]           [--]                    [--]            [--]    [--]    [--]
  2.7000        32.6948           0.0000          0.0000            60.00         1.33          0.1600            0.0000           4.8000       PFind                   None            0.00    0.00    None
  2.9800        29.6234           0.0000          0.0000            67.50         1.49          0.1000            0.0000           2.7000       PFind                   None            0.00    0.00    None
  3.4800        25.3682           0.0000          0.0000            50.00         1.10          0.1400            0.0000           2.0000       PFind                   None            0.00    0.00    None
  3.9200        22.5217           0.0000          0.0000            44.17         0.98          0.0600            0.0000           0.0000       PFind                   None            0.00    0.00    None
  4.2800        20.6281           0.0000          0.0000            37.50         0.83          0.0400            0.0000           6.0000       PFind                   None            0.00    0.00    None
  4.7200        18.7061           0.0000          0.0000            31.67         0.70          0.0600            0.0000           2.5333       PFind                   None            0.00    0.00    None
  5.0000        17.6591           0.0000          0.0000            35.83         0.79          0.0600            0.0000           2.8667       PFind                   None            0.00    0.00    None
  6.3600        13.8857           0.0000          0.0000           103.33         2.28          0.0600            0.0000          14.4667       PFind                   None            0.00    0.00    None
  7.0800        12.4751           0.0000          0.0000            28.33         0.63          0.0400            0.0000           1.7000       PFind                   None            0.00    0.00    None
  7.7000        11.4720           0.0000          0.0000            29.17         0.64          0.0800            0.0000           0.5833       PFind                   None            0.00    0.00    None
  8.3800        10.5425           0.0000          0.0000            27.50         0.61          0.0600            0.0000           2.2000       PFind                   None            0.00    0.00    None
  9.3000         9.5016           0.0000          0.0000            46.67         1.03          0.1600            0.0000           2.8000       PFind                   None            0.00    0.00    None
 10.3200         8.5646           0.0000          0.0000            30.00         0.66          0.0600            0.0000           1.2000       PFind                   None            0.00    0.00    None
 12.3200         7.1784           0.0000          0.0000           820.00        18.11          0.0000            0.0000          49.2000       PFind                   None            0.00    0.00    None
 12.9800         6.8148           0.0000          0.0000            30.00         0.66          0.0800            0.0000           0.0000       PFind                   None            0.00    0.00    None
 13.9800         6.3295           0.0000          0.0000            69.17         1.53          0.1000            0.0000           4.1500       PFind                   None            0.00    0.00    None
 15.0600         5.8780           0.0000          0.0000            27.50         0.61          0.0600            0.0000           1.6500       PFind                   None            0.00    0.00    None
 18.7200         4.7362           0.0000          0.0000           175.83         3.88          0.0200            0.0000          21.1000       PFind                   None            0.00    0.00    None
 19.8200         4.4757           0.0000          0.0000            73.33         1.62          0.1200            0.0000           1.4667       PFind                   None            0.00    0.00    None
 20.9800         4.2308           0.0000          0.0000           267.50         5.91          0.0600            0.0000          26.7500       PFind                   None            0.00    0.00    None
 23.0200         3.8603           0.0000          0.0000           173.33         3.83          0.0800            0.0000          17.3333       PFind                   None            0.00    0.00    None
 24.4200         3.6421           0.0000          0.0000            30.83         0.68          0.1600            0.0000           1.8500       PFind                   None            0.00    0.00    None
 25.0000         3.5589           0.0000          0.0000           173.33         3.83          0.0200            0.0000          27.7333       PFind                   None            0.00    0.00    None
 25.6600         3.4688           0.0000          0.0000            52.50         1.16          0.1200            0.0000           8.4000       PFind                   None            0.00    0.00    None
 27.0000         3.2996           0.0000          0.0000           934.17        20.63          0.0400            0.0000         149.4667       PFind                   None            0.00    0.00    None
 28.0600         3.1773           0.0000          0.0000           452.50         9.99          0.1600            0.0000          54.3000       PFind                   None            0.00    0.00    None
 28.7400         3.1037           0.0000          0.0000           143.33         3.17          0.0600            0.0000          17.2000       PFind                   None            0.00    0.00    None
 30.3400         2.9436           0.0000          0.0000            90.00         1.99          0.1000            0.0000          10.8000       PFind                   None            0.00    0.00    None
 31.0000         2.8824           0.0000          0.0000            41.67         0.92          0.0600            0.0000           1.6667       PFind                   None            0.00    0.00    None
 31.6800         2.8220           0.0000          0.0000            55.00         1.21          0.1600            0.0000           7.7000       PFind                   None            0.00    0.00    None
 32.3000         2.7693           0.0000          0.0000            34.17         0.75          0.0400            0.0000           3.4167       PFind                   None            0.00    0.00    None
 33.6000         2.6650           0.0000          0.0000            29.17         0.64          0.1400            0.0000           3.5000       PFind                   None            0.00    0.00    None
 35.1200         2.5531           0.0000          0.0000            46.67         1.03          0.0400            0.0000           1.8667       PFind                   None            0.00    0.00    None
 36.2600         2.4754           0.0000          0.0000            66.67         1.47          0.0600            0.0000           8.0000       PFind                   None            0.00    0.00    None
 38.2400         2.3517           0.0000          0.0000          2665.83        58.88          0.0400            0.0000         159.9500       PFind                   None            0.00    0.00    None
 40.1200         2.2457           0.0000          0.0000           109.17         2.41          0.0400            0.0000           2.1833       PFind                   None            0.00    0.00    None
 40.5400         2.2234           0.0000          0.0000            28.33         0.63          0.1200            0.0000           1.7000       PFind                   None            0.00    0.00    None
 42.4600         2.1272           0.0000          0.0000           100.83         2.23          0.0800            0.0000           4.0333       PFind                   None            0.00    0.00    None
 44.4200         2.0378           0.0000          0.0000          1548.33        34.20          0.0800            0.0000          92.9000       PFind                   None            0.00    0.00    None
 45.7400         1.9820           0.0000          0.0000           276.67         6.11          0.0200            0.0000          44.2667       PFind                   None            0.00    0.00    None
 48.5000         1.8754           0.0000          0.0000            70.00         1.55          0.0200            0.0000           9.8000       PFind                   None            0.00    0.00    None
 50.2600         1.8138           0.0000          0.0000           131.67         2.91          0.1000            0.0000           7.9000       PFind                   None            0.00    0.00    None
 51.3200         1.7788           0.0000          0.0000            29.17         0.64          0.1000            0.0000           4.0833       PFind                   None            0.00    0.00    None
 52.7400         1.7342           0.0000          0.0000            30.83         0.68          0.0200            0.0000           1.2333       PFind                   None            0.00    0.00    None
 55.1600         1.6637           0.0000          0.0000            41.67         0.92          0.1000            0.0000           5.0000       PFind                   None            0.00    0.00    None
 60.2400         1.5350           0.0000          0.0000            50.83         1.12          0.0800            0.0000           4.0667       PFind                   None            0.00    0.00    None
 64.5600         1.4423           0.0000          0.0000           840.00        18.55          0.0000            0.0000          50.4000       PFind                   None            0.00    0.00    None
 64.7400         1.4387           0.0000          0.0000           413.33         9.13          0.0000            0.0000          24.8000       PFind                   None            0.00    0.00    None