Folder: Non-Linear-XRD-Inversion/Generating XRD fingerprints/INPUT/Detrital data (part 17)

File: 21_1_AUG_PF_FILTER.txt
Filename:
	C:\Program Files\Thermo Electron\WinXRD\Datafiles\FIEN\21_2_AUG_FILTER.pk

File Created:
	April 15, 2019 - 03:27 PM

Specimen Id:
	21.1 AUG FILTER

Specimen Name:

Specimen Description:

Comment:
Scan Type: 2Theta Scan
Start Angle: 1 deg.
Stop Angle: 65 deg.
Num Points: 3201
Step Size: 0.02 deg.
Scan Rate: 1.000000
Scan Mode: Continuous
Wavelength: 1.540562
\Kalpha1: 1.540562	\Kalpha2: 1.544390	\Kbeta: 1.392218

Optics:
		Detector:
			 Type: Fixed Slits
		Tube:
			 Type: Fixed Slits

Datas:
Peaks:

Position        Dspace          ESD(P)          Corr.Fact       Intensity       Rel.Int.        FWHM(L)         ESD(L)          Area            Source                  Curve           Strain  CSize   CSize_Source
[deg]           [A]             [deg]           [deg]           [CPS]           [CPS]           [deg]           [deg]           [deg]           [--]                    [--]            [--]    [--]    [--]
  4.4200        19.9750           0.0000          0.0000            35.00         0.73          0.0600            0.0000           2.8000       PFind                   None            0.00    0.00    None
  3.7600        23.4797           0.0000          0.0000            35.00         0.73          0.0400            0.0000           2.1000       PFind                   None            0.00    0.00    None
  2.9400        30.0263           0.0000          0.0000            35.83         0.74          0.0800            0.0000           2.8667       PFind                   None            0.00    0.00    None
 32.5000         2.7527           0.0000          0.0000            36.67         0.76          0.0000            0.0000           0.7333       PFind                   None            0.00    0.00    None
 34.7000         2.5830           0.0000          0.0000            37.50         0.78          0.1000            0.0000           4.5000       PFind                   None            0.00    0.00    None
  5.4800        16.1134           0.0000          0.0000            38.33         0.79          0.0800            0.0000           0.7667       PFind                   None            0.00    0.00    None
  5.9400        14.8665           0.0000          0.0000            38.33         0.79          0.0800            0.0000           0.0000       PFind                   None            0.00    0.00    None
 32.2200         2.7760           0.0000          0.0000            39.17         0.81          0.1400            0.0000           5.4833       PFind                   None            0.00    0.00    None
 37.5600         2.3927           0.0000          0.0000            40.00         0.83          0.1000            0.0000           3.2000       PFind                   None            0.00    0.00    None
 20.0600         4.4227           0.0000          0.0000            42.50         0.88          0.0400            0.0000           6.8000       PFind                   None            0.00    0.00    None
  3.4200        25.8131           0.0000          0.0000            43.33         0.90          0.0800            0.0000           3.4667       PFind                   None            0.00    0.00    None
  3.2400        27.2467           0.0000          0.0000            44.17         0.91          0.0400            0.0000           0.0000       PFind                   None            0.00    0.00    None
  9.6400         9.1672           0.0000          0.0000            45.00         0.93          0.1200            0.0000           5.4000       PFind                   None            0.00    0.00    None
 10.7400         8.2306           0.0000          0.0000            45.83         0.95          0.0600            0.0000           2.7500       PFind                   None            0.00    0.00    None
 36.3000         2.4728           0.0000          0.0000            45.83         0.95          0.1600            0.0000           0.9167       PFind                   None            0.00    0.00    None
 23.2200         3.8275           0.0000          0.0000            46.67         0.97          0.1400            0.0000           2.8000       PFind                   None            0.00    0.00    None
 15.2000         5.8241           0.0000          0.0000            48.33         1.00          0.0400            0.0000           3.8667       PFind                   None            0.00    0.00    None
 64.2000         1.4495           0.0000          0.0000            48.33         1.00          0.1400            0.0000           1.9333       PFind                   None            0.00    0.00    None
  9.3800         9.4207           0.0000          0.0000            52.50         1.09          0.1400            0.0000           3.1500       PFind                   None            0.00    0.00    None
 56.0400         1.6397           0.0000          0.0000            53.33         1.10          0.1000            0.0000           6.4000       PFind                   None            0.00    0.00    None
 22.7600         3.9038           0.0000          0.0000            55.00         1.14          0.1200            0.0000           3.3000       PFind                   None            0.00    0.00    None
 18.7400         4.7312           0.0000          0.0000            56.67         1.17          0.1200            0.0000           6.8000       PFind                   None            0.00    0.00    None
 44.4400         2.0369           0.0000          0.0000            64.17         1.33          0.1400            0.0000           6.4167       PFind                   None            0.00    0.00    None
 35.1600         2.5503           0.0000          0.0000            71.67         1.48          0.0800            0.0000          10.0333       PFind                   None            0.00    0.00    None
 30.4000         2.9379           0.0000          0.0000            73.33         1.52          0.1600            0.0000           7.3333       PFind                   None            0.00    0.00    None
 21.4600         4.1373           0.0000          0.0000            81.67         1.69          0.0800            0.0000           3.2667       PFind                   None            0.00    0.00    None
 55.0400         1.6671           0.0000          0.0000            95.83         1.99          0.0000            0.0000          11.5000       PFind                   None            0.00    0.00    None
 39.2200         2.2951           0.0000          0.0000           100.83         2.09          0.0600            0.0000           4.0333       PFind                   None            0.00    0.00    None
 25.7000         3.4635           0.0000          0.0000           102.50         2.12          0.0400            0.0000          14.3500       PFind                   None            0.00    0.00    None
 27.6600         3.2224           0.0000          0.0000           109.17         2.26          0.1600            0.0000          13.1000       PFind                   None            0.00    0.00    None
 31.4200         2.8448           0.0000          0.0000           117.50         2.43          0.1200            0.0000          16.4500       PFind                   None            0.00    0.00    None
  6.4000        13.7990           0.0000          0.0000           130.83         2.71          0.0800            0.0000          18.3167       PFind                   None            0.00    0.00    None
 30.6400         2.9154           0.0000          0.0000           131.67         2.73          0.0800            0.0000          13.1667       PFind                   None            0.00    0.00    None
 28.7400         3.1037           0.0000          0.0000           140.00         2.90          0.0600            0.0000          14.0000       PFind                   None            0.00    0.00    None
 35.5400         2.5239           0.0000          0.0000           148.33         3.07          0.0600            0.0000           5.9333       PFind                   None            0.00    0.00    None
 24.8200         3.5843           0.0000          0.0000           172.50         3.57          0.0200            0.0000          24.1500       PFind                   None            0.00    0.00    None
 25.8200         3.4477           0.0000          0.0000           196.67         4.07          0.0000            0.0000          15.7333       PFind                   None            0.00    0.00    None
 25.3400         3.5119           0.0000          0.0000           205.83         4.26          0.0000            0.0000          32.9333       PFind                   None            0.00    0.00    None
 60.1200         1.5378           0.0000          0.0000           241.67         5.01          0.0800            0.0000          19.3333       PFind                   None            0.00    0.00    None
 12.3800         7.1438           0.0000          0.0000           398.33         8.25          0.0600            0.0000          23.9000       PFind                   None            0.00    0.00    None
  9.0800         9.7313           0.0000          0.0000           469.17         9.72          0.0200            0.0000          28.1500       PFind                   None            0.00    0.00    None
 21.0400         4.2189           0.0000          0.0000           566.67        11.74          0.0000            0.0000          45.3333       PFind                   None            0.00    0.00    None
 36.7400         2.4442           0.0000          0.0000           653.33        13.53          0.0400            0.0000          39.2000       PFind                   None            0.00    0.00    None
 26.8200         3.3214           0.0000          0.0000          2185.83        45.28          0.0400            0.0000         218.5833       PFind                   None            0.00    0.00    None
 23.7600         3.7417           0.0000          0.0000          4827.50       100.00          0.1200            0.0000         193.1000       PFind                   None            0.00    0.00    None

File: 21_2_AUG_PF_FILTER.txt
Filename:
	C:\Program Files\Thermo Electron\WinXRD\Datafiles\FIEN\21_2_AUG_FT.pk

File Created:
	April 15, 2019 - 03:31 PM

Specimen Id:
	21.2 AUG FT

Specimen Name:

Specimen Description:

Comment:
Scan Type: 2Theta Scan
Start Angle: 1 deg.
Stop Angle: 65 deg.
Num Points: 3201
Step Size: 0.02 deg.
Scan Rate: 1.000000
Scan Mode: Continuous
Wavelength: 1.540562
\Kalpha1: 1.540562	\Kalpha2: 1.544390	\Kbeta: 1.392218

Optics:
		Detector:
			 Type: Fixed Slits
		Tube:
			 Type: Fixed Slits

Datas:
Peaks:

Position        Dspace          ESD(P)          Corr.Fact       Intensity       Rel.Int.        FWHM(L)         ESD(L)          Area            Source                  Curve           Strain  CSize   CSize_Source
[deg]           [A]             [deg]           [deg]           [CPS]           [CPS]           [deg]           [deg]           [deg]           [--]                    [--]            [--]    [--]    [--]
  2.8400        31.0834           0.0000          0.0000            57.50         1.20          0.0200            0.0000           1.1500       PFind                   None            0.00    0.00    None
  3.2200        27.4159           0.0000          0.0000            68.33         1.43          0.0000            0.0000           5.4667       PFind                   None            0.00    0.00    None
  3.5800        24.6598           0.0000          0.0000            58.33         1.22          0.0200            0.0000           5.8333       PFind                   None            0.00    0.00    None
  4.1600        21.2229           0.0000          0.0000            51.67         1.08          0.0800            0.0000           4.1333       PFind                   None            0.00    0.00    None
  4.6600        18.9468           0.0000          0.0000            48.33         1.01          0.1400            0.0000           0.0000       PFind                   None            0.00    0.00    None
  4.9800        17.7300           0.0000          0.0000            37.50         0.78          0.1600            0.0000           1.5000       PFind                   None            0.00    0.00    None
  5.1800        17.0459           0.0000          0.0000            35.00         0.73          0.1200            0.0000           4.9000       PFind                   None            0.00    0.00    None
  5.8200        15.1728           0.0000          0.0000            28.33         0.59          0.0600            0.0000           2.2667       PFind                   None            0.00    0.00    None
  6.4400        13.7134           0.0000          0.0000            30.00         0.63          0.1400            0.0000           2.4000       PFind                   None            0.00    0.00    None
  6.8400        12.9123           0.0000          0.0000            38.33         0.80          0.1400            0.0000           0.7667       PFind                   None            0.00    0.00    None
  7.1600        12.3359           0.0000          0.0000            26.67         0.56          0.0800            0.0000           0.5333       PFind                   None            0.00    0.00    None
  7.5200        11.7462           0.0000          0.0000            39.17         0.82          0.0000            0.0000           3.1333       PFind                   None            0.00    0.00    None
  7.7800        11.3542           0.0000          0.0000            31.67         0.66          0.1200            0.0000           2.5333       PFind                   None            0.00    0.00    None
  8.1400        10.8528           0.0000          0.0000            35.83         0.75          0.0800            0.0000           5.0167       PFind                   None            0.00    0.00    None
  8.8000        10.0403           0.0000          0.0000           500.00        10.46          0.1000            0.0000          60.0000       PFind                   None            0.00    0.00    None
  9.6400         9.1672           0.0000          0.0000            26.67         0.56          0.0600            0.0000           1.0667       PFind                   None            0.00    0.00    None
  9.9600         8.8734           0.0000          0.0000            30.83         0.64          0.0400            0.0000           1.8500       PFind                   None            0.00    0.00    None
 10.9400         8.0806           0.0000          0.0000            30.83         0.64          0.1400            0.0000           0.6167       PFind                   None            0.00    0.00    None
 12.1600         7.2725           0.0000          0.0000           443.33         9.27          0.0600            0.0000          62.0667       PFind                   None            0.00    0.00    None
 12.9400         6.8358           0.0000          0.0000            34.17         0.71          0.0800            0.0000           0.0000       PFind                   None            0.00    0.00    None
 13.2400         6.6816           0.0000          0.0000            25.00         0.52          0.1000            0.0000           3.0000       PFind                   None            0.00    0.00    None
 13.7800         6.4210           0.0000          0.0000            34.17         0.71          0.0000            0.0000           0.0000       PFind                   None            0.00    0.00    None
 17.7800         4.9844           0.0000          0.0000           134.17         2.81          0.0800            0.0000          18.7833       PFind                   None            0.00    0.00    None
 18.7600         4.7262           0.0000          0.0000            67.50         1.41          0.0800            0.0000           8.1000       PFind                   None            0.00    0.00    None
 24.5800         3.6187           0.0000          0.0000           151.67         3.17          0.0000            0.0000          24.2667       PFind                   None            0.00    0.00    None
 25.1200         3.5421           0.0000          0.0000            83.33         1.74          0.1200            0.0000          11.6667       PFind                   None            0.00    0.00    None
 25.9800         3.4268           0.0000          0.0000            20.83         0.44          0.1200            0.0000           0.8333       PFind                   None            0.00    0.00    None
 27.7200         3.2155           0.0000          0.0000            50.83         1.06          0.0400            0.0000           5.0833       PFind                   None            0.00    0.00    None
 28.6200         3.1164           0.0000          0.0000            30.83         0.64          0.1600            0.0000           1.8500       PFind                   None            0.00    0.00    None
 34.2800         2.6137           0.0000          0.0000            73.33         1.53          0.1400            0.0000           5.8667       PFind                   None            0.00    0.00    None
 36.4800         2.4610           0.0000          0.0000            63.33         1.32          0.1600            0.0000           6.3333       PFind                   None            0.00    0.00    None
 38.6600         2.3271           0.0000          0.0000            29.17         0.61          0.1200            0.0000           2.3333       PFind                   None            0.00    0.00    None
 39.8000         2.2630           0.0000          0.0000            29.17         0.61          0.1000            0.0000           1.1667       PFind                   None            0.00    0.00    None
 42.3400         2.1329           0.0000          0.0000            34.17         0.71          0.0200            0.0000           4.7833       PFind                   None            0.00    0.00    None
 45.5400         1.9902           0.0000          0.0000            60.83         1.27          0.0800            0.0000           9.7333       PFind                   None            0.00    0.00    None
 61.4400         1.5079           0.0000          0.0000            25.83         0.54          0.0600            0.0000           2.5833       PFind                   None            0.00    0.00    None
 64.5800         1.4419           0.0000          0.0000           736.67        15.41          0.1000            0.0000          88.4000       PFind                   None            0.00    0.00    None