Folder: Non-Linear-XRD-Inversion/Generating XRD fingerprints/INPUT/Detrital data (part 23)

File: 28_7_14_24_2_PF_FILTER.txt
Filename:
	C:\Program Files\Thermo Electron\WinXRD\Datafiles\FIEN\28_7_14_24_2 FILTER.pk

File Created:
	April 15, 2019 - 03:50 PM

Specimen Id:
	28.714.24 FILTRE 2 FT

Specimen Name:

Specimen Description:

Comment:
Scan Type: 2Theta Scan
Start Angle: 2 deg.
Stop Angle: 65 deg.
Num Points: 3151
Step Size: 0.02 deg.
Scan Rate: 1.000000
Scan Mode: Continuous
Wavelength: 1.540562
\Kalpha1: 1.540562	\Kalpha2: 1.544390	\Kbeta: 1.392218

Optics:
		Detector:
			 Type: Fixed Slits
		Tube:
			 Type: Fixed Slits

Datas:
Peaks:

Position        Dspace          ESD(P)          Corr.Fact       Intensity       Rel.Int.        FWHM(L)         ESD(L)          Area            Source                  Curve           Strain  CSize   CSize_Source
[deg]           [A]             [deg]           [deg]           [CPS]           [CPS]           [deg]           [deg]           [deg]           [--]                    [--]            [--]    [--]    [--]
  3.7000        23.8603           0.0000          0.0000            44.17         1.63          0.1600            0.0000           0.8833       PFind                   None            0.00    0.00    None
  4.1400        21.3253           0.0000          0.0000            49.17         1.82          0.1000            0.0000           2.9500       PFind                   None            0.00    0.00    None
  4.6400        19.0284           0.0000          0.0000            50.00         1.85          0.1200            0.0000           0.0000       PFind                   None            0.00    0.00    None
  5.1400        17.1785           0.0000          0.0000            32.50         1.20          0.1400            0.0000           2.6000       PFind                   None            0.00    0.00    None
  6.0800        14.5245           0.0000          0.0000            42.50         1.57          0.1000            0.0000           3.4000       PFind                   None            0.00    0.00    None
  6.6400        13.3008           0.0000          0.0000            37.50         1.39          0.0400            0.0000           2.2500       PFind                   None            0.00    0.00    None
  7.3800        11.9687           0.0000          0.0000            30.00         1.11          0.1200            0.0000           1.8000       PFind                   None            0.00    0.00    None
  7.8200        11.2962           0.0000          0.0000            30.00         1.11          0.0600            0.0000           1.8000       PFind                   None            0.00    0.00    None
  8.0200        11.0149           0.0000          0.0000            39.17         1.45          0.0600            0.0000           1.5667       PFind                   None            0.00    0.00    None
  8.9600         9.8614           0.0000          0.0000           815.00        30.10          0.0200            0.0000          65.2000       PFind                   None            0.00    0.00    None
  9.5200         9.2825           0.0000          0.0000            85.00         3.14          0.0800            0.0000           3.4000       PFind                   None            0.00    0.00    None
 10.5800         8.3547           0.0000          0.0000            70.83         2.62          0.0800            0.0000           5.6667       PFind                   None            0.00    0.00    None
 11.9400         7.4060           0.0000          0.0000            29.17         1.08          0.0800            0.0000           0.0000       PFind                   None            0.00    0.00    None
 12.5800         7.0306           0.0000          0.0000           373.33        13.79          0.0200            0.0000          44.8000       PFind                   None            0.00    0.00    None
 15.0800         5.8702           0.0000          0.0000            30.00         1.11          0.1200            0.0000           2.4000       PFind                   None            0.00    0.00    None
 18.6200         4.7614           0.0000          0.0000            91.67         3.39          0.1400            0.0000          12.8333       PFind                   None            0.00    0.00    None
 19.8000         4.4802           0.0000          0.0000            30.00         1.11          0.0600            0.0000           2.4000       PFind                   None            0.00    0.00    None
 22.1600         4.0081           0.0000          0.0000           210.83         7.79          0.0800            0.0000          16.8667       PFind                   None            0.00    0.00    None
 23.6600         3.7573           0.0000          0.0000           763.33        28.19          0.0000            0.0000          61.0667       PFind                   None            0.00    0.00    None
 24.3200         3.6568           0.0000          0.0000            47.50         1.75          0.1600            0.0000           4.7500       PFind                   None            0.00    0.00    None
 25.2600         3.5228           0.0000          0.0000           275.00        10.16          0.0600            0.0000          33.0000       PFind                   None            0.00    0.00    None
 26.7200         3.3336           0.0000          0.0000          2201.67        81.32          0.0000            0.0000         220.1667       PFind                   None            0.00    0.00    None
 27.2800         3.2664           0.0000          0.0000            36.67         1.35          0.1000            0.0000           5.8667       PFind                   None            0.00    0.00    None
 27.9800         3.1862           0.0000          0.0000           364.17        13.45          0.0400            0.0000          36.4167       PFind                   None            0.00    0.00    None
 28.7000         3.1079           0.0000          0.0000           105.83         3.91          0.0600            0.0000          16.9333       PFind                   None            0.00    0.00    None
 30.0000         2.9761           0.0000          0.0000            30.83         1.14          0.0600            0.0000           4.9333       PFind                   None            0.00    0.00    None
 30.6200         2.9173           0.0000          0.0000            44.17         1.63          0.1000            0.0000           5.3000       PFind                   None            0.00    0.00    None
 31.3400         2.8519           0.0000          0.0000            83.33         3.08          0.0800            0.0000          10.0000       PFind                   None            0.00    0.00    None
 32.1800         2.7793           0.0000          0.0000            31.67         1.17          0.0600            0.0000           3.1667       PFind                   None            0.00    0.00    None
 34.4000         2.6049           0.0000          0.0000            44.17         1.63          0.1200            0.0000           2.6500       PFind                   None            0.00    0.00    None
 34.7000         2.5830           0.0000          0.0000            30.83         1.14          0.0800            0.0000           1.8500       PFind                   None            0.00    0.00    None
 34.9800         2.5630           0.0000          0.0000            36.67         1.35          0.1200            0.0000           4.4000       PFind                   None            0.00    0.00    None
 36.2000         2.4794           0.0000          0.0000           101.67         3.76          0.0800            0.0000           8.1333       PFind                   None            0.00    0.00    None
 38.2000         2.3540           0.0000          0.0000          2707.50       100.00          0.0200            0.0000         216.6000       PFind                   None            0.00    0.00    None
 39.6600         2.2707           0.0000          0.0000            48.33         1.79          0.1400            0.0000           0.9667       PFind                   None            0.00    0.00    None
 40.3600         2.2329           0.0000          0.0000            56.67         2.09          0.1000            0.0000           3.4000       PFind                   None            0.00    0.00    None
 44.3800         2.0395           0.0000          0.0000          1342.50        49.58          0.0600            0.0000         107.4000       PFind                   None            0.00    0.00    None
 48.2600         1.8842           0.0000          0.0000           106.67         3.94          0.1200            0.0000           6.4000       PFind                   None            0.00    0.00    None
 49.2000         1.8504           0.0000          0.0000            40.83         1.51          0.1400            0.0000           2.4500       PFind                   None            0.00    0.00    None
 50.2400         1.8145           0.0000          0.0000           381.67        14.10          0.0600            0.0000          22.9000       PFind                   None            0.00    0.00    None
 50.8000         1.7958           0.0000          0.0000            61.67         2.28          0.1400            0.0000           7.4000       PFind                   None            0.00    0.00    None
 60.0600         1.5392           0.0000          0.0000           123.33         4.56          0.0600            0.0000           7.4000       PFind                   None            0.00    0.00    None
 61.5400         1.5057           0.0000          0.0000            30.83         1.14          0.0600            0.0000           3.7000       PFind                   None            0.00    0.00    None
 64.6800         1.4399           0.0000          0.0000           577.50        21.33          0.1000            0.0000          46.2000       PFind                   None            0.00    0.00    None

File: G12_PF_RT.txt
Filename:
	C:\Program Files\Thermo Electron\WinXRD\Datafiles\FIEN2\GEO\G12_RT.pk

File Created:
	February 25, 2021 - 09:35 AM

Specimen Id:
	G12_RT

Specimen Name:

Specimen Description:

Comment:
Scan Type: 2Theta Scan
Start Angle: 3 deg.
Stop Angle: 65 deg.
Num Points: 3101
Step Size: 0.02 deg.
Scan Rate: 1.000000
Scan Mode: Continuous
Wavelength: 1.540562
\Kalpha1: 1.540562	\Kalpha2: 1.544390	\Kbeta: 1.392218

Optics:
		Detector:
			 Type: Fixed Slits
		Tube:
			 Type: Fixed Slits

Datas:
Peaks:

Position        Dspace          ESD(P)          Corr.Fact       Intensity       Rel.Int.        FWHM(L)         ESD(L)          Area            Source                  Curve           Strain  CSize   CSize_Source
[deg]           [A]             [deg]           [deg]           [CPS]           [CPS]           [deg]           [deg]           [deg]           [--]                    [--]            [--]    [--]    [--]
  4.7000        18.7856           0.0000          0.0000            52.50         2.37          0.0800            0.0000           4.2000       PFind                   None            0.00    0.00    None
  5.3600        16.4739           0.0000          0.0000            51.67         2.33          0.0800            0.0000           1.0333       PFind                   None            0.00    0.00    None
  6.1600        14.3361           0.0000          0.0000           150.83         6.81          0.0200            0.0000          18.1000       PFind                   None            0.00    0.00    None
  6.7400        13.1037           0.0000          0.0000            53.33         2.41          0.1200            0.0000           8.5333       PFind                   None            0.00    0.00    None
  7.9200        11.1538           0.0000          0.0000            41.67         1.88          0.1000            0.0000           1.6667       PFind                   None            0.00    0.00    None
  8.8200        10.0176           0.0000          0.0000           684.17        30.88          0.0400            0.0000          68.4167       PFind                   None            0.00    0.00    None
  9.3600         9.4408           0.0000          0.0000            65.00         2.93          0.1000            0.0000           7.8000       PFind                   None            0.00    0.00    None
 10.1000         8.7507           0.0000          0.0000            37.50         1.69          0.1200            0.0000           0.7500       PFind                   None            0.00    0.00    None
 10.9600         8.0659           0.0000          0.0000            45.83         2.07          0.1000            0.0000           0.9167       PFind                   None            0.00    0.00    None
 12.1400         7.2844           0.0000          0.0000           530.83        23.96          0.0200            0.0000          42.4667       PFind                   None            0.00    0.00    None
 13.7800         6.4210           0.0000          0.0000            54.17         2.44          0.0200            0.0000           4.3333       PFind                   None            0.00    0.00    None
 17.2800         5.1275           0.0000          0.0000            70.83         3.20          0.0000            0.0000           1.4167       PFind                   None            0.00    0.00    None
 18.7400         4.7312           0.0000          0.0000           117.50         5.30          0.0600            0.0000          16.4500       PFind                   None            0.00    0.00    None
 20.5600         4.3163           0.0000          0.0000            34.17         1.54          0.1000            0.0000           4.1000       PFind                   None            0.00    0.00    None
 22.8800         3.8836           0.0000          0.0000            50.83         2.29          0.1600            0.0000           7.1167       PFind                   None            0.00    0.00    None
 24.2200         3.6717           0.0000          0.0000            55.83         2.52          0.1200            0.0000           7.8167       PFind                   None            0.00    0.00    None
 25.1000         3.5449           0.0000          0.0000           272.50        12.30          0.1600            0.0000          27.2500       PFind                   None            0.00    0.00    None
 26.8200         3.3214           0.0000          0.0000           575.83        25.99          0.1000            0.0000          80.6167       PFind                   None            0.00    0.00    None
 28.0800         3.1751           0.0000          0.0000           240.83        10.87          0.1200            0.0000          24.0833       PFind                   None            0.00    0.00    None
 30.0600         2.9703           0.0000          0.0000            71.67         3.23          0.1400            0.0000           7.1667       PFind                   None            0.00    0.00    None
 31.2000         2.8644           0.0000          0.0000            93.33         4.21          0.1000            0.0000           7.4667       PFind                   None            0.00    0.00    None
 32.1000         2.7861           0.0000          0.0000            54.17         2.44          0.0800            0.0000           8.6667       PFind                   None            0.00    0.00    None
 34.0600         2.6301           0.0000          0.0000            34.17         1.54          0.1000            0.0000           0.6833       PFind                   None            0.00    0.00    None
 35.4600         2.5294           0.0000          0.0000           142.50         6.43          0.0400            0.0000          22.8000       PFind                   None            0.00    0.00    None
 36.4800         2.4610           0.0000          0.0000           240.00        10.83          0.1600            0.0000          19.2000       PFind                   None            0.00    0.00    None
 37.2800         2.4100           0.0000          0.0000            62.50         2.82          0.0800            0.0000          10.0000       PFind                   None            0.00    0.00    None
 37.8400         2.3756           0.0000          0.0000            35.83         1.62          0.1400            0.0000           4.3000       PFind                   None            0.00    0.00    None
 41.6400         2.1672           0.0000          0.0000            65.00         2.93          0.1000            0.0000           6.5000       PFind                   None            0.00    0.00    None
 43.4600         2.0805           0.0000          0.0000           207.50         9.36          0.1200            0.0000          33.2000       PFind                   None            0.00    0.00    None
 45.0600         2.0103           0.0000          0.0000            51.67         2.33          0.0600            0.0000           5.1667       PFind                   None            0.00    0.00    None
 48.1000         1.8901           0.0000          0.0000            55.00         2.48          0.1200            0.0000           3.3000       PFind                   None            0.00    0.00    None
 50.5600         1.8038           0.0000          0.0000           225.00        10.15          0.0800            0.0000          18.0000       PFind                   None            0.00    0.00    None
 54.8200         1.6732           0.0000          0.0000            80.00         3.61          0.1200            0.0000           6.4000       PFind                   None            0.00    0.00    None
 55.7600         1.6472           0.0000          0.0000            61.67         2.78          0.1400            0.0000           9.8667       PFind                   None            0.00    0.00    None
 58.5800         1.5745           0.0000          0.0000            44.17         1.99          0.1600            0.0000           4.4167       PFind                   None            0.00    0.00    None
 60.0400         1.5396           0.0000          0.0000           146.67         6.62          0.0200            0.0000          20.5333       PFind                   None            0.00    0.00    None
 61.9600         1.4965           0.0000          0.0000           140.83         6.36          0.0800            0.0000          11.2667       PFind                   None            0.00    0.00    None
 64.1400         1.4507           0.0000          0.0000            37.50         1.69          0.1600            0.0000           3.7500       PFind                   None            0.00    0.00    None