Folder: Non-Linear-XRD-Inversion/Generating XRD fingerprints/INPUT/Detrital data (part 33)

File: G36_pf_RT.txt
Filename:
	C:\Program Files\Thermo Electron\WinXRD\Datafiles\FIEN2\GEO\G36_RT.pk

File Created:
	February 25, 2021 - 09:41 AM

Specimen Id:
	G36_RT

Specimen Name:

Specimen Description:

Comment:
Scan Type: 2Theta Scan
Start Angle: 3 deg.
Stop Angle: 65 deg.
Num Points: 3101
Step Size: 0.02 deg.
Scan Rate: 1.000000
Scan Mode: Continuous
Wavelength: 1.540562
\Kalpha1: 1.540562	\Kalpha2: 1.544390	\Kbeta: 1.392218

Optics:
		Detector:
			 Type: Fixed Slits
		Tube:
			 Type: Fixed Slits

Datas:
Peaks:

Position        Dspace          ESD(P)          Corr.Fact       Intensity       Rel.Int.        FWHM(L)         ESD(L)          Area            Source                  Curve           Strain  CSize   CSize_Source
[deg]           [A]             [deg]           [deg]           [CPS]           [CPS]           [deg]           [deg]           [deg]           [--]                    [--]            [--]    [--]    [--]
  4.6800        18.8659           0.0000          0.0000            68.33         2.49          0.1000            0.0000           1.3667       PFind                   None            0.00    0.00    None
  5.5000        16.0548           0.0000          0.0000            55.00         2.01          0.0800            0.0000           0.0000       PFind                   None            0.00    0.00    None
  6.1600        14.3361           0.0000          0.0000            78.33         2.86          0.0400            0.0000          12.5333       PFind                   None            0.00    0.00    None
  6.9800        12.6536           0.0000          0.0000            45.00         1.64          0.1200            0.0000           1.8000       PFind                   None            0.00    0.00    None
  7.6200        11.5922           0.0000          0.0000            45.83         1.67          0.1600            0.0000           0.9167       PFind                   None            0.00    0.00    None
  8.4200        10.4925           0.0000          0.0000            43.33         1.58          0.1000            0.0000           3.4667       PFind                   None            0.00    0.00    None
  9.4200         9.3808           0.0000          0.0000            50.00         1.82          0.1200            0.0000           0.0000       PFind                   None            0.00    0.00    None
 10.3000         8.5812           0.0000          0.0000            35.00         1.28          0.0600            0.0000           1.4000       PFind                   None            0.00    0.00    None
 11.0200         8.0221           0.0000          0.0000            26.67         0.97          0.0600            0.0000           1.6000       PFind                   None            0.00    0.00    None
 12.7200         6.9536           0.0000          0.0000            30.83         1.13          0.1000            0.0000           0.6167       PFind                   None            0.00    0.00    None
 13.2800         6.6616           0.0000          0.0000            30.83         1.13          0.0400            0.0000           0.6167       PFind                   None            0.00    0.00    None
 14.7000         6.0211           0.0000          0.0000            25.83         0.94          0.0600            0.0000           1.0333       PFind                   None            0.00    0.00    None
 15.6000         5.6757           0.0000          0.0000            25.00         0.91          0.0000            0.0000           0.0000       PFind                   None            0.00    0.00    None
 18.5400         4.7818           0.0000          0.0000            52.50         1.92          0.0400            0.0000           1.0500       PFind                   None            0.00    0.00    None
 20.1000         4.4140           0.0000          0.0000            27.50         1.00          0.0800            0.0000           0.0000       PFind                   None            0.00    0.00    None
 22.8400         3.8903           0.0000          0.0000            41.67         1.52          0.1000            0.0000           1.6667       PFind                   None            0.00    0.00    None
 24.5400         3.6245           0.0000          0.0000           222.50         8.12          0.1000            0.0000          26.7000       PFind                   None            0.00    0.00    None
 25.5200         3.4875           0.0000          0.0000           116.67         4.26          0.0400            0.0000          11.6667       PFind                   None            0.00    0.00    None
 27.8800         3.1974           0.0000          0.0000           429.17        15.66          0.0000            0.0000          60.0833       PFind                   None            0.00    0.00    None
 30.1400         2.9626           0.0000          0.0000            61.67         2.25          0.0400            0.0000           4.9333       PFind                   None            0.00    0.00    None
 31.4800         2.8395           0.0000          0.0000            36.67         1.34          0.0600            0.0000           0.7333       PFind                   None            0.00    0.00    None
 33.8400         2.6467           0.0000          0.0000            40.00         1.46          0.0600            0.0000           4.0000       PFind                   None            0.00    0.00    None
 36.0200         2.4913           0.0000          0.0000            35.00         1.28          0.0600            0.0000           2.1000       PFind                   None            0.00    0.00    None
 37.5600         2.3927           0.0000          0.0000            56.67         2.07          0.0800            0.0000           9.0667       PFind                   None            0.00    0.00    None
 39.8600         2.2597           0.0000          0.0000            26.67         0.97          0.0200            0.0000           0.0000       PFind                   None            0.00    0.00    None
 41.6000         2.1692           0.0000          0.0000            38.33         1.40          0.1600            0.0000           2.3000       PFind                   None            0.00    0.00    None
 43.6000         2.0742           0.0000          0.0000            45.00         1.64          0.1200            0.0000           3.6000       PFind                   None            0.00    0.00    None
 45.6600         1.9853           0.0000          0.0000           124.17         4.53          0.0400            0.0000          19.8667       PFind                   None            0.00    0.00    None
 48.0800         1.8908           0.0000          0.0000            79.17         2.89          0.0200            0.0000           3.1667       PFind                   None            0.00    0.00    None
 50.5400         1.8044           0.0000          0.0000            62.50         2.28          0.0800            0.0000          10.0000       PFind                   None            0.00    0.00    None
 52.2400         1.7496           0.0000          0.0000            47.50         1.73          0.1000            0.0000           3.8000       PFind                   None            0.00    0.00    None
 55.2400         1.6615           0.0000          0.0000            80.00         2.92          0.1200            0.0000           4.8000       PFind                   None            0.00    0.00    None
 55.7800         1.6467           0.0000          0.0000            40.83         1.49          0.1000            0.0000           0.0000       PFind                   None            0.00    0.00    None
 58.7000         1.5715           0.0000          0.0000            33.33         1.22          0.0800            0.0000           2.6667       PFind                   None            0.00    0.00    None
 59.8600         1.5438           0.0000          0.0000           370.83        13.53          0.0800            0.0000          22.2500       PFind                   None            0.00    0.00    None
 61.4600         1.5074           0.0000          0.0000            38.33         1.40          0.0600            0.0000           3.0667       PFind                   None            0.00    0.00    None
 63.8400         1.4568           0.0000          0.0000            25.00         0.91          0.0800            0.0000           2.5000       PFind                   None            0.00    0.00    None
 64.0400         1.4528           0.0000          0.0000            31.67         1.16          0.0800            0.0000           0.0000       PFind                   None            0.00    0.00    None

File: G37_pf_RT.txt
Filename:
	C:\Program Files\Thermo Electron\WinXRD\Datafiles\FIEN2\GEO\G37_RT.pk

File Created:
	February 25, 2021 - 09:41 AM

Specimen Id:
	G37_RT

Specimen Name:

Specimen Description:

Comment:
Scan Type: 2Theta Scan
Start Angle: 3 deg.
Stop Angle: 65 deg.
Num Points: 3101
Step Size: 0.02 deg.
Scan Rate: 1.000000
Scan Mode: Continuous
Wavelength: 1.540562
\Kalpha1: 1.540562	\Kalpha2: 1.544390	\Kbeta: 1.392218

Optics:
		Detector:
			 Type: Fixed Slits
		Tube:
			 Type: Fixed Slits

Datas:
Peaks:

Position        Dspace          ESD(P)          Corr.Fact       Intensity       Rel.Int.        FWHM(L)         ESD(L)          Area            Source                  Curve           Strain  CSize   CSize_Source
[deg]           [A]             [deg]           [deg]           [CPS]           [CPS]           [deg]           [deg]           [deg]           [--]                    [--]            [--]    [--]    [--]
  4.7200        18.7061           0.0000          0.0000            50.83         2.12          0.1400            0.0000           2.0333       PFind                   None            0.00    0.00    None
  5.4800        16.1134           0.0000          0.0000            52.50         2.19          0.0800            0.0000           6.3000       PFind                   None            0.00    0.00    None
  5.9600        14.8167           0.0000          0.0000            44.17         1.84          0.0200            0.0000           1.7667       PFind                   None            0.00    0.00    None
  6.7200        13.1426           0.0000          0.0000            34.17         1.42          0.1000            0.0000           4.7833       PFind                   None            0.00    0.00    None
  7.6200        11.5922           0.0000          0.0000            41.67         1.74          0.0400            0.0000           1.6667       PFind                   None            0.00    0.00    None
  8.0400        10.9876           0.0000          0.0000            48.33         2.01          0.0800            0.0000           0.9667       PFind                   None            0.00    0.00    None
  8.6200        10.2495           0.0000          0.0000            58.33         2.43          0.0800            0.0000           1.1667       PFind                   None            0.00    0.00    None
  9.3400         9.4610           0.0000          0.0000            36.67         1.53          0.1600            0.0000           0.7333       PFind                   None            0.00    0.00    None
  9.8800         8.9451           0.0000          0.0000            31.67         1.32          0.0600            0.0000           2.5333       PFind                   None            0.00    0.00    None
 10.8200         8.1700           0.0000          0.0000            71.67         2.99          0.0000            0.0000           1.4333       PFind                   None            0.00    0.00    None
 11.7800         7.5062           0.0000          0.0000            28.33         1.18          0.1000            0.0000           2.8333       PFind                   None            0.00    0.00    None
 12.4400         7.1094           0.0000          0.0000           107.50         4.48          0.0200            0.0000          17.2000       PFind                   None            0.00    0.00    None
 13.1200         6.7424           0.0000          0.0000            26.67         1.11          0.0600            0.0000           0.5333       PFind                   None            0.00    0.00    None
 13.8600         6.3841           0.0000          0.0000            45.00         1.88          0.1000            0.0000           2.7000       PFind                   None            0.00    0.00    None
 17.7800         4.9844           0.0000          0.0000            96.67         4.03          0.0800            0.0000           9.6667       PFind                   None            0.00    0.00    None
 19.8000         4.4802           0.0000          0.0000            46.67         1.94          0.0400            0.0000           2.8000       PFind                   None            0.00    0.00    None
 21.1600         4.1952           0.0000          0.0000            31.67         1.32          0.0400            0.0000           0.0000       PFind                   None            0.00    0.00    None
 23.5000         3.7825           0.0000          0.0000           176.67         7.36          0.0400            0.0000          17.6667       PFind                   None            0.00    0.00    None
 24.5400         3.6245           0.0000          0.0000            65.00         2.71          0.1000            0.0000           7.8000       PFind                   None            0.00    0.00    None
 25.6000         3.4768           0.0000          0.0000            90.83         3.78          0.0000            0.0000           7.2667       PFind                   None            0.00    0.00    None
 27.4800         3.2431           0.0000          0.0000            80.83         3.37          0.0800            0.0000          11.3167       PFind                   None            0.00    0.00    None
 28.2800         3.1531           0.0000          0.0000            96.67         4.03          0.0600            0.0000          11.6000       PFind                   None            0.00    0.00    None
 29.8600         2.9898           0.0000          0.0000            69.17         2.88          0.0600            0.0000           9.6833       PFind                   None            0.00    0.00    None
 30.8400         2.8970           0.0000          0.0000            49.17         2.05          0.0800            0.0000           3.9333       PFind                   None            0.00    0.00    None
 33.0200         2.7105           0.0000          0.0000            50.00         2.08          0.1600            0.0000           2.0000       PFind                   None            0.00    0.00    None
 33.9400         2.6391           0.0000          0.0000            27.50         1.15          0.1200            0.0000           1.6500       PFind                   None            0.00    0.00    None
 34.5400         2.5946           0.0000          0.0000            40.83         1.70          0.1200            0.0000           3.2667       PFind                   None            0.00    0.00    None
 35.6000         2.5198           0.0000          0.0000            71.67         2.99          0.0200            0.0000           8.6000       PFind                   None            0.00    0.00    None
 36.7400         2.4442           0.0000          0.0000           174.17         7.26          0.0600            0.0000           6.9667       PFind                   None            0.00    0.00    None
 37.5400         2.3939           0.0000          0.0000            57.50         2.40          0.1000            0.0000           6.9000       PFind                   None            0.00    0.00    None
 39.4200         2.2839           0.0000          0.0000           121.67         5.07          0.1000            0.0000          12.1667       PFind                   None            0.00    0.00    None
 41.2200         2.1883           0.0000          0.0000           404.17        16.84          0.0000            0.0000           8.0833       PFind                   None            0.00    0.00    None
 43.5600         2.0760           0.0000          0.0000            52.50         2.19          0.1400            0.0000           8.4000       PFind                   None            0.00    0.00    None
 44.5200         2.0334           0.0000          0.0000           171.67         7.15          0.0800            0.0000          27.4667       PFind                   None            0.00    0.00    None
 45.1200         2.0078           0.0000          0.0000            50.83         2.12          0.1000            0.0000           8.1333       PFind                   None            0.00    0.00    None
 48.0800         1.8908           0.0000          0.0000            34.17         1.42          0.1600            0.0000           3.4167       PFind                   None            0.00    0.00    None
 49.7800         1.8302           0.0000          0.0000            34.17         1.42          0.1600            0.0000           0.6833       PFind                   None            0.00    0.00    None
 51.1000         1.7860           0.0000          0.0000            40.00         1.67          0.1600            0.0000           1.6000       PFind                   None            0.00    0.00    None
 52.9200         1.7287           0.0000          0.0000            31.67         1.32          0.1400            0.0000           0.6333       PFind                   None            0.00    0.00    None
 54.9800         1.6687           0.0000          0.0000            65.00         2.71          0.1000            0.0000           7.8000       PFind                   None            0.00    0.00    None
 55.8200         1.6456           0.0000          0.0000            65.00         2.71          0.0600            0.0000           5.2000       PFind                   None            0.00    0.00    None
 58.7400         1.5706           0.0000          0.0000            26.67         1.11          0.1600            0.0000           1.0667       PFind                   None            0.00    0.00    None
 59.9400         1.5420           0.0000          0.0000           255.00        10.63          0.0400            0.0000          25.5000       PFind                   None            0.00    0.00    None
 61.4400         1.5079           0.0000          0.0000            35.83         1.49          0.1000            0.0000           4.3000       PFind                   None            0.00    0.00    None
 61.8000         1.4999           0.0000          0.0000            37.50         1.56          0.0600            0.0000           3.0000       PFind                   None            0.00    0.00    None
 63.8200         1.4572           0.0000          0.0000            39.17         1.63          0.0400            0.0000           2.3500       PFind                   None            0.00    0.00    None
 64.8200         1.4372           0.0000          0.0000            46.67         1.94          0.0200            0.0000           2.8000       PFind                   None            0.00    0.00    None