Folder: Non-Linear-XRD-Inversion/Generating XRD fingerprints/INPUT/Detrital data (part 45)

File: G71_pf_RT.txt
Filename:
	C:\Program Files\Thermo Electron\WinXRD\Datafiles\FIEN2\GEO\G71_RT.pk

File Created:
	February 25, 2021 - 09:57 AM

Specimen Id:
	G71_RT

Specimen Name:

Specimen Description:

Comment:
Scan Type: 2Theta Scan
Start Angle: 3 deg.
Stop Angle: 65 deg.
Num Points: 3101
Step Size: 0.02 deg.
Scan Rate: 1.000000
Scan Mode: Continuous
Wavelength: 1.540562
\Kalpha1: 1.540562	\Kalpha2: 1.544390	\Kbeta: 1.392218

Optics:
		Detector:
			 Type: Fixed Slits
		Tube:
			 Type: Fixed Slits

Datas:
Peaks:

Position        Dspace          ESD(P)          Corr.Fact       Intensity       Rel.Int.        FWHM(L)         ESD(L)          Area            Source                  Curve           Strain  CSize   CSize_Source
[deg]           [A]             [deg]           [deg]           [CPS]           [CPS]           [deg]           [deg]           [deg]           [--]                    [--]            [--]    [--]    [--]
  4.6600        18.9468           0.0000          0.0000            40.83         1.45          0.1000            0.0000           4.0833       PFind                   None            0.00    0.00    None
  5.5800        15.8248           0.0000          0.0000            47.50         1.68          0.1000            0.0000           4.7500       PFind                   None            0.00    0.00    None
  6.8000        12.9882           0.0000          0.0000            40.83         1.45          0.1200            0.0000           2.4500       PFind                   None            0.00    0.00    None
  7.5000        11.7774           0.0000          0.0000            40.00         1.42          0.1000            0.0000           0.8000       PFind                   None            0.00    0.00    None
  8.2600        10.6954           0.0000          0.0000            36.67         1.30          0.0200            0.0000           2.2000       PFind                   None            0.00    0.00    None
  9.5600         9.2437           0.0000          0.0000            35.83         1.27          0.0200            0.0000           0.7167       PFind                   None            0.00    0.00    None
 10.4400         8.4665           0.0000          0.0000           110.83         3.93          0.0000            0.0000           8.8667       PFind                   None            0.00    0.00    None
 11.0600         7.9932           0.0000          0.0000            25.00         0.89          0.1400            0.0000           3.5000       PFind                   None            0.00    0.00    None
 11.7400         7.5317           0.0000          0.0000            32.50         1.15          0.0400            0.0000           0.0000       PFind                   None            0.00    0.00    None
 13.1600         6.7220           0.0000          0.0000            25.83         0.92          0.0200            0.0000           0.5167       PFind                   None            0.00    0.00    None
 14.6200         6.0539           0.0000          0.0000            23.33         0.83          0.0000            0.0000           2.3333       PFind                   None            0.00    0.00    None
 15.4800         5.7194           0.0000          0.0000            24.17         0.86          0.0400            0.0000           0.4833       PFind                   None            0.00    0.00    None
 16.3800         5.4071           0.0000          0.0000            28.33         1.01          0.0000            0.0000           1.1333       PFind                   None            0.00    0.00    None
 18.9000         4.6915           0.0000          0.0000            23.33         0.83          0.0400            0.0000           3.2667       PFind                   None            0.00    0.00    None
 19.7200         4.4982           0.0000          0.0000            48.33         1.71          0.1000            0.0000           7.7333       PFind                   None            0.00    0.00    None
 22.4400         3.9588           0.0000          0.0000            20.83         0.74          0.0200            0.0000           0.4167       PFind                   None            0.00    0.00    None
 23.9400         3.7140           0.0000          0.0000            30.83         1.09          0.0200            0.0000           1.2333       PFind                   None            0.00    0.00    None
 24.7600         3.5928           0.0000          0.0000            68.33         2.42          0.0200            0.0000           6.8333       PFind                   None            0.00    0.00    None
 26.7800         3.3262           0.0000          0.0000           604.17        21.43          0.1000            0.0000          96.6667       PFind                   None            0.00    0.00    None
 28.2000         3.1619           0.0000          0.0000            72.50         2.57          0.0200            0.0000          10.1500       PFind                   None            0.00    0.00    None
 30.4200         2.9360           0.0000          0.0000            81.67         2.90          0.0200            0.0000           9.8000       PFind                   None            0.00    0.00    None
 31.9600         2.7980           0.0000          0.0000            41.67         1.48          0.1600            0.0000           4.1667       PFind                   None            0.00    0.00    None
 33.7600         2.6528           0.0000          0.0000            61.67         2.19          0.0600            0.0000           2.4667       PFind                   None            0.00    0.00    None
 35.2600         2.5433           0.0000          0.0000            31.67         1.12          0.0600            0.0000           5.0667       PFind                   None            0.00    0.00    None
 37.5200         2.3951           0.0000          0.0000            87.50         3.10          0.1000            0.0000          10.5000       PFind                   None            0.00    0.00    None
 38.7000         2.3248           0.0000          0.0000            25.83         0.92          0.0400            0.0000           2.5833       PFind                   None            0.00    0.00    None
 40.9400         2.2026           0.0000          0.0000            26.67         0.95          0.0600            0.0000           0.0000       PFind                   None            0.00    0.00    None
 42.3800         2.1310           0.0000          0.0000           289.17        10.26          0.0400            0.0000          11.5667       PFind                   None            0.00    0.00    None
 44.4400         2.0369           0.0000          0.0000           250.00         8.87          0.0200            0.0000          40.0000       PFind                   None            0.00    0.00    None
 46.1000         1.9673           0.0000          0.0000            22.50         0.80          0.0800            0.0000           0.9000       PFind                   None            0.00    0.00    None
 47.2200         1.9233           0.0000          0.0000            25.00         0.89          0.0000            0.0000           2.0000       PFind                   None            0.00    0.00    None
 49.2600         1.8483           0.0000          0.0000            24.17         0.86          0.0800            0.0000           0.0000       PFind                   None            0.00    0.00    None
 50.6600         1.8004           0.0000          0.0000            66.67         2.36          0.0000            0.0000           8.0000       PFind                   None            0.00    0.00    None
 52.4200         1.7440           0.0000          0.0000            25.83         0.92          0.0400            0.0000           1.0333       PFind                   None            0.00    0.00    None
 54.7800         1.6744           0.0000          0.0000            91.67         3.25          0.1000            0.0000          12.8333       PFind                   None            0.00    0.00    None
 55.7000         1.6489           0.0000          0.0000            61.67         2.19          0.0800            0.0000           7.4000       PFind                   None            0.00    0.00    None
 57.1600         1.6102           0.0000          0.0000            24.17         0.86          0.1400            0.0000           0.9667       PFind                   None            0.00    0.00    None
 58.9600         1.5652           0.0000          0.0000            22.50         0.80          0.0200            0.0000           0.9000       PFind                   None            0.00    0.00    None
 60.2600         1.5345           0.0000          0.0000            21.67         0.77          0.1600            0.0000           0.4333       PFind                   None            0.00    0.00    None
 61.2000         1.5132           0.0000          0.0000            21.67         0.77          0.1600            0.0000           2.6000       PFind                   None            0.00    0.00    None
 62.5800         1.4831           0.0000          0.0000            30.00         1.06          0.1600            0.0000           2.4000       PFind                   None            0.00    0.00    None
 64.5400         1.4427           0.0000          0.0000            22.50         0.80          0.0800            0.0000           0.4500       PFind                   None            0.00    0.00    None
 64.7800         1.4380           0.0000          0.0000            21.67         0.77          0.1200            0.0000           1.7333       PFind                   None            0.00    0.00    None

File: G72_pf_RT.txt
Filename:
	C:\Program Files\Thermo Electron\WinXRD\Datafiles\FIEN2\GEO\G72_RT.pk

File Created:
	February 25, 2021 - 09:57 AM

Specimen Id:
	G72_RT

Specimen Name:

Specimen Description:

Comment:
Scan Type: 2Theta Scan
Start Angle: 3 deg.
Stop Angle: 65 deg.
Num Points: 3101
Step Size: 0.02 deg.
Scan Rate: 1.000000
Scan Mode: Continuous
Wavelength: 1.540562
\Kalpha1: 1.540562	\Kalpha2: 1.544390	\Kbeta: 1.392218

Optics:
		Detector:
			 Type: Fixed Slits
		Tube:
			 Type: Fixed Slits

Datas:
Peaks:

Position        Dspace          ESD(P)          Corr.Fact       Intensity       Rel.Int.        FWHM(L)         ESD(L)          Area            Source                  Curve           Strain  CSize   CSize_Source
[deg]           [A]             [deg]           [deg]           [CPS]           [CPS]           [deg]           [deg]           [deg]           [--]                    [--]            [--]    [--]    [--]
 56.4800         1.6279           0.0000          0.0000            26.67         1.18          0.0600            0.0000           4.2667       PFind                   None            0.00    0.00    None
 51.5600         1.7711           0.0000          0.0000            27.50         1.22          0.0000            0.0000           1.6500       PFind                   None            0.00    0.00    None
 12.6000         7.0195           0.0000          0.0000            28.33         1.25          0.0800            0.0000           1.7000       PFind                   None            0.00    0.00    None
 16.3600         5.4137           0.0000          0.0000            29.17         1.29          0.1000            0.0000           1.1667       PFind                   None            0.00    0.00    None
 15.0400         5.8857           0.0000          0.0000            30.00         1.33          0.1000            0.0000           1.8000       PFind                   None            0.00    0.00    None
 38.7200         2.3236           0.0000          0.0000            30.00         1.33          0.1000            0.0000           0.6000       PFind                   None            0.00    0.00    None
 58.6600         1.5725           0.0000          0.0000            30.00         1.33          0.0000            0.0000           3.0000       PFind                   None            0.00    0.00    None
 10.0600         8.7854           0.0000          0.0000            31.67         1.40          0.0400            0.0000           2.5333       PFind                   None            0.00    0.00    None
 11.2800         7.8378           0.0000          0.0000            32.50         1.44          0.1600            0.0000           0.6500       PFind                   None            0.00    0.00    None
 11.7200         7.5445           0.0000          0.0000            33.33         1.47          0.0400            0.0000           0.6667       PFind                   None            0.00    0.00    None
 48.1400         1.8886           0.0000          0.0000            33.33         1.47          0.1000            0.0000           5.3333       PFind                   None            0.00    0.00    None
 36.0200         2.4913           0.0000          0.0000            34.17         1.51          0.1600            0.0000           3.4167       PFind                   None            0.00    0.00    None
 52.0600         1.7553           0.0000          0.0000            35.00         1.55          0.1200            0.0000           1.4000       PFind                   None            0.00    0.00    None
  7.5200        11.7462           0.0000          0.0000            35.83         1.58          0.1600            0.0000           2.8667       PFind                   None            0.00    0.00    None
 12.8600         6.8782           0.0000          0.0000            36.67         1.62          0.0200            0.0000           1.4667       PFind                   None            0.00    0.00    None
 59.1200         1.5614           0.0000          0.0000            36.67         1.62          0.1200            0.0000           1.4667       PFind                   None            0.00    0.00    None
 37.3800         2.4038           0.0000          0.0000            38.33         1.70          0.0600            0.0000           1.5333       PFind                   None            0.00    0.00    None
 55.7400         1.6478           0.0000          0.0000            39.17         1.73          0.0400            0.0000           4.7000       PFind                   None            0.00    0.00    None
 15.7800         5.6114           0.0000          0.0000            42.50         1.88          0.1000            0.0000           0.8500       PFind                   None            0.00    0.00    None
  7.3400        12.0338           0.0000          0.0000            44.17         1.95          0.1600            0.0000           6.1833       PFind                   None            0.00    0.00    None
  9.1000         9.7099           0.0000          0.0000            45.83         2.03          0.1000            0.0000           3.6667       PFind                   None            0.00    0.00    None
 11.9000         7.4308           0.0000          0.0000            46.67         2.06          0.1200            0.0000           5.6000       PFind                   None            0.00    0.00    None
 61.5000         1.5065           0.0000          0.0000            47.50         2.10          0.1000            0.0000           4.7500       PFind                   None            0.00    0.00    None
  5.8000        15.2251           0.0000          0.0000            49.17         2.17          0.1600            0.0000           5.9000       PFind                   None            0.00    0.00    None
 10.4200         8.4827           0.0000          0.0000            50.00         2.21          0.1600            0.0000           7.0000       PFind                   None            0.00    0.00    None
  6.7200        13.1426           0.0000          0.0000            51.67         2.29          0.1200            0.0000           1.0333       PFind                   None            0.00    0.00    None
  5.4800        16.1134           0.0000          0.0000            54.17         2.40          0.1200            0.0000           3.2500       PFind                   None            0.00    0.00    None
 54.9200         1.6704           0.0000          0.0000            55.00         2.43          0.1600            0.0000           2.2000       PFind                   None            0.00    0.00    None
 31.2000         2.8644           0.0000          0.0000            58.33         2.58          0.0800            0.0000           7.0000       PFind                   None            0.00    0.00    None
  5.8800        15.0181           0.0000          0.0000            62.50         2.76          0.0600            0.0000           0.0000       PFind                   None            0.00    0.00    None
 34.8800         2.5701           0.0000          0.0000            62.50         2.76          0.1600            0.0000          10.0000       PFind                   None            0.00    0.00    None
 18.4600         4.8023           0.0000          0.0000            63.33         2.80          0.0000            0.0000           3.8000       PFind                   None            0.00    0.00    None
 33.8400         2.6467           0.0000          0.0000            73.33         3.24          0.0200            0.0000           7.3333       PFind                   None            0.00    0.00    None
 34.4800         2.5990           0.0000          0.0000            80.00         3.54          0.0200            0.0000           8.0000       PFind                   None            0.00    0.00    None
 28.0400         3.1796           0.0000          0.0000            84.17         3.72          0.0000            0.0000          13.4667       PFind                   None            0.00    0.00    None
 30.4000         2.9379           0.0000          0.0000            89.17         3.94          0.0600            0.0000           8.9167       PFind                   None            0.00    0.00    None
 28.5600         3.1228           0.0000          0.0000           103.33         4.57          0.1200            0.0000          16.5333       PFind                   None            0.00    0.00    None
 35.4400         2.5308           0.0000          0.0000           115.00         5.09          0.0600            0.0000          13.8000       PFind                   None            0.00    0.00    None
 18.7000         4.7412           0.0000          0.0000           120.83         5.34          0.0200            0.0000          12.0833       PFind                   None            0.00    0.00    None
 40.2000         2.2414           0.0000          0.0000           135.83         6.01          0.0800            0.0000           5.4333       PFind                   None            0.00    0.00    None
 21.9400         4.0478           0.0000          0.0000           148.33         6.56          0.0800            0.0000          11.8667       PFind                   None            0.00    0.00    None
 17.7200         5.0012           0.0000          0.0000           178.33         7.89          0.0200            0.0000          17.8333       PFind                   None            0.00    0.00    None
 24.5200         3.6274           0.0000          0.0000           224.17         9.92          0.0800            0.0000          35.8667       PFind                   None            0.00    0.00    None
 12.4000         7.1323           0.0000          0.0000           262.50        11.61          0.0800            0.0000          26.2500       PFind                   None            0.00    0.00    None
 12.1000         7.3084           0.0000          0.0000           339.17        15.00          0.0200            0.0000          20.3500       PFind                   None            0.00    0.00    None
 26.8000         3.3238           0.0000          0.0000           450.83        19.94          0.1200            0.0000          54.1000       PFind                   None            0.00    0.00    None
 26.5400         3.3558           0.0000          0.0000          2260.83       100.00          0.0000            0.0000         180.8667       PFind                   None            0.00    0.00    None