Folder: Non-Linear-XRD-Inversion/Generating XRD fingerprints/INPUT/Detrital data (part 14)

File: 15_1_AUG_PF_FILTER.txt
Filename:
	H:\15_1_AUG_FILTER.pk

File Created:
	April 16, 2019 - 04:34 PM

Specimen Id:
	15.1 AUG FILTER

Specimen Name:

Specimen Description:

Comment:
Scan Type: 2Theta Scan
Start Angle: 2 deg.
Stop Angle: 65 deg.
Num Points: 3151
Step Size: 0.02 deg.
Scan Rate: 1.000000
Scan Mode: Continuous
Wavelength: 1.540562
\Kalpha1: 1.540562	\Kalpha2: 1.544390	\Kbeta: 1.392218

Optics:
		Detector:
			 Type: Fixed Slits
		Tube:
			 Type: Fixed Slits

Datas:
Peaks:

Position        Dspace          ESD(P)          Corr.Fact       Intensity       Rel.Int.        FWHM(L)         ESD(L)          Area            Source                  Curve           Strain  CSize   CSize_Source
[deg]           [A]             [deg]           [deg]           [CPS]           [CPS]           [deg]           [deg]           [deg]           [--]                    [--]            [--]    [--]    [--]
  3.7400        23.6052           0.0000          0.0000            30.83         0.62          0.0600            0.0000           1.8500       PFind                   None            0.00    0.00    None
  3.9200        22.5217           0.0000          0.0000            41.67         0.84          0.1200            0.0000           4.1667       PFind                   None            0.00    0.00    None
  4.4200        19.9750           0.0000          0.0000            43.33         0.87          0.1000            0.0000           3.4667       PFind                   None            0.00    0.00    None
  4.7600        18.5490           0.0000          0.0000            30.00         0.60          0.0600            0.0000           1.2000       PFind                   None            0.00    0.00    None
  5.3000        16.6602           0.0000          0.0000            39.17         0.79          0.1000            0.0000           0.7833       PFind                   None            0.00    0.00    None
  5.6800        15.5465           0.0000          0.0000            56.67         1.14          0.1600            0.0000           0.0000       PFind                   None            0.00    0.00    None
  6.2400        14.1525           0.0000          0.0000            38.33         0.77          0.1000            0.0000           3.8333       PFind                   None            0.00    0.00    None
  7.0400        12.5459           0.0000          0.0000            30.00         0.60          0.0400            0.0000           0.0000       PFind                   None            0.00    0.00    None
  8.2600        10.6954           0.0000          0.0000            29.17         0.59          0.0800            0.0000           1.1667       PFind                   None            0.00    0.00    None
  8.9400         9.8834           0.0000          0.0000           132.50         2.66          0.0000            0.0000          15.9000       PFind                   None            0.00    0.00    None
 10.6800         8.2767           0.0000          0.0000            28.33         0.57          0.0800            0.0000           2.2667       PFind                   None            0.00    0.00    None
 12.5400         7.0530           0.0000          0.0000           172.50         3.47          0.0000            0.0000          20.7000       PFind                   None            0.00    0.00    None
 13.5800         6.5151           0.0000          0.0000            33.33         0.67          0.1400            0.0000           2.0000       PFind                   None            0.00    0.00    None
 14.2600         6.2059           0.0000          0.0000            29.17         0.59          0.0400            0.0000           0.5833       PFind                   None            0.00    0.00    None
 17.4200         5.0866           0.0000          0.0000            49.17         0.99          0.1400            0.0000           1.9667       PFind                   None            0.00    0.00    None
 18.7600         4.7262           0.0000          0.0000            75.00         1.51          0.1000            0.0000           7.5000       PFind                   None            0.00    0.00    None
 20.0000         4.4359           0.0000          0.0000            40.00         0.80          0.0600            0.0000           4.0000       PFind                   None            0.00    0.00    None
 22.1800         4.0046           0.0000          0.0000           128.33         2.58          0.1200            0.0000          15.4000       PFind                   None            0.00    0.00    None
 23.7200         3.7479           0.0000          0.0000           464.17         9.33          0.0400            0.0000          64.9833       PFind                   None            0.00    0.00    None
 24.7000         3.6014           0.0000          0.0000           126.67         2.55          0.0600            0.0000          15.2000       PFind                   None            0.00    0.00    None
 25.7800         3.4529           0.0000          0.0000           785.00        15.78          0.0800            0.0000          78.5000       PFind                   None            0.00    0.00    None
 27.6600         3.2224           0.0000          0.0000           191.67         3.85          0.0800            0.0000          30.6667       PFind                   None            0.00    0.00    None
 28.6600         3.1122           0.0000          0.0000            38.33         0.77          0.1000            0.0000           1.5333       PFind                   None            0.00    0.00    None
 30.2400         2.9531           0.0000          0.0000            60.83         1.22          0.1200            0.0000           2.4333       PFind                   None            0.00    0.00    None
 30.6800         2.9117           0.0000          0.0000            47.50         0.95          0.0400            0.0000           3.8000       PFind                   None            0.00    0.00    None
 31.5200         2.8360           0.0000          0.0000            32.50         0.65          0.1400            0.0000           3.2500       PFind                   None            0.00    0.00    None
 32.3400         2.7659           0.0000          0.0000            93.33         1.88          0.0400            0.0000           5.6000       PFind                   None            0.00    0.00    None
 35.6000         2.5198           0.0000          0.0000            50.00         1.01          0.0400            0.0000           8.0000       PFind                   None            0.00    0.00    None
 36.6600         2.4493           0.0000          0.0000           160.00         3.22          0.0000            0.0000          16.0000       PFind                   None            0.00    0.00    None
 38.1800         2.3552           0.0000          0.0000           823.33        16.55          0.0200            0.0000          98.8000       PFind                   None            0.00    0.00    None
 39.1000         2.3019           0.0000          0.0000            28.33         0.57          0.0200            0.0000           2.2667       PFind                   None            0.00    0.00    None
 39.9000         2.2576           0.0000          0.0000            30.83         0.62          0.1000            0.0000           0.0000       PFind                   None            0.00    0.00    None
 41.9200         2.1533           0.0000          0.0000            55.83         1.12          0.1000            0.0000           7.8167       PFind                   None            0.00    0.00    None
 44.3600         2.0404           0.0000          0.0000           431.67         8.68          0.0800            0.0000          34.5333       PFind                   None            0.00    0.00    None
 45.8600         1.9771           0.0000          0.0000           125.00         2.51          0.0800            0.0000          15.0000       PFind                   None            0.00    0.00    None
 49.3400         1.8455           0.0000          0.0000            32.50         0.65          0.0800            0.0000           3.2500       PFind                   None            0.00    0.00    None
 50.2200         1.8152           0.0000          0.0000           164.17         3.30          0.1000            0.0000          26.2667       PFind                   None            0.00    0.00    None
 51.6400         1.7685           0.0000          0.0000            92.50         1.86          0.1000            0.0000           3.7000       PFind                   None            0.00    0.00    None
 55.1000         1.6654           0.0000          0.0000           108.33         2.18          0.0600            0.0000           6.5000       PFind                   None            0.00    0.00    None
 57.8400         1.5928           0.0000          0.0000            33.33         0.67          0.0800            0.0000           1.3333       PFind                   None            0.00    0.00    None
 60.2200         1.5355           0.0000          0.0000            72.50         1.46          0.1000            0.0000           5.8000       PFind                   None            0.00    0.00    None
 64.1000         1.4516           0.0000          0.0000            35.83         0.72          0.1200            0.0000           0.7167       PFind                   None            0.00    0.00    None
 64.6600         1.4403           0.0000          0.0000           165.00         3.32          0.0200            0.0000          13.2000       PFind                   None            0.00    0.00    None

File: 15_1_SEPT_PF_FILTER.txt
Filename:
	C:\Program Files\Thermo Electron\WinXRD\Datafiles\FIEN\15_1_SEPT_FILTER.pk

File Created:
	April 15, 2019 - 03:23 PM

Specimen Id:
	15/1/SEPTEMBRE FILTRE

Specimen Name:

Specimen Description:

Comment:
Scan Type: 2Theta Scan
Start Angle: 1 deg.
Stop Angle: 65 deg.
Num Points: 3201
Step Size: 0.02 deg.
Scan Rate: 1.000000
Scan Mode: Continuous
Wavelength: 1.540562
\Kalpha1: 1.540562	\Kalpha2: 1.544390	\Kbeta: 1.392218

Optics:
		Detector:
			 Type: Fixed Slits
		Tube:
			 Type: Fixed Slits

Datas:
Peaks:

Position        Dspace          ESD(P)          Corr.Fact       Intensity       Rel.Int.        FWHM(L)         ESD(L)          Area            Source                  Curve           Strain  CSize   CSize_Source
[deg]           [A]             [deg]           [deg]           [CPS]           [CPS]           [deg]           [deg]           [deg]           [--]                    [--]            [--]    [--]    [--]
  2.9400        30.0263           0.0000          0.0000            55.00         2.53          0.1600            0.0000           4.4000       PFind                   None            0.00    0.00    None
  3.3200        26.5904           0.0000          0.0000            45.83         2.11          0.0600            0.0000           2.7500       PFind                   None            0.00    0.00    None
  3.6200        24.3874           0.0000          0.0000            50.83         2.34          0.0400            0.0000           3.0500       PFind                   None            0.00    0.00    None
  3.9800        22.1823           0.0000          0.0000            50.83         2.34          0.0600            0.0000           4.0667       PFind                   None            0.00    0.00    None
  4.5000        19.6201           0.0000          0.0000            46.67         2.15          0.1600            0.0000           1.8667       PFind                   None            0.00    0.00    None
  6.3200        13.9735           0.0000          0.0000           179.17         8.24          0.1000            0.0000          28.6667       PFind                   None            0.00    0.00    None
  7.3000        12.0996           0.0000          0.0000            48.33         2.22          0.0800            0.0000           0.0000       PFind                   None            0.00    0.00    None
  9.0000         9.8176           0.0000          0.0000           614.17        28.26          0.0600            0.0000          61.4167       PFind                   None            0.00    0.00    None
  9.5400         9.2631           0.0000          0.0000            45.83         2.11          0.1000            0.0000           1.8333       PFind                   None            0.00    0.00    None
 10.6400         8.3078           0.0000          0.0000            97.50         4.49          0.1000            0.0000           5.8500       PFind                   None            0.00    0.00    None
 12.6200         7.0084           0.0000          0.0000           379.17        17.45          0.0800            0.0000          37.9167       PFind                   None            0.00    0.00    None
 17.9400         4.9403           0.0000          0.0000           350.83        16.14          0.1600            0.0000          49.1167       PFind                   None            0.00    0.00    None
 18.9200         4.6866           0.0000          0.0000           150.83         6.94          0.1400            0.0000          18.1000       PFind                   None            0.00    0.00    None
 21.0000         4.2268           0.0000          0.0000           659.17        30.33          0.0600            0.0000          65.9167       PFind                   None            0.00    0.00    None
 23.0400         3.8570           0.0000          0.0000            40.83         1.88          0.0200            0.0000           6.5333       PFind                   None            0.00    0.00    None
 23.6600         3.7573           0.0000          0.0000           339.17        15.61          0.0000            0.0000          33.9167       PFind                   None            0.00    0.00    None
 24.7400         3.5957           0.0000          0.0000           224.17        10.31          0.1400            0.0000          35.8667       PFind                   None            0.00    0.00    None
 25.5400         3.4848           0.0000          0.0000            93.33         4.29          0.1200            0.0000          14.9333       PFind                   None            0.00    0.00    None
 26.7600         3.3287           0.0000          0.0000          2173.33       100.00          0.0800            0.0000         260.8000       PFind                   None            0.00    0.00    None
 27.6400         3.2247           0.0000          0.0000           185.83         8.55          0.0200            0.0000          29.7333       PFind                   None            0.00    0.00    None
 28.3800         3.1422           0.0000          0.0000            90.83         4.18          0.1600            0.0000          14.5333       PFind                   None            0.00    0.00    None
 30.0600         2.9703           0.0000          0.0000           249.17        11.46          0.0000            0.0000          34.8833       PFind                   None            0.00    0.00    None
 30.5600         2.9229           0.0000          0.0000            87.50         4.03          0.1200            0.0000           8.7500       PFind                   None            0.00    0.00    None
 31.3400         2.8519           0.0000          0.0000           142.50         6.56          0.1400            0.0000          19.9500       PFind                   None            0.00    0.00    None
 32.2200         2.7760           0.0000          0.0000            86.67         3.99          0.1600            0.0000          13.8667       PFind                   None            0.00    0.00    None
 34.7000         2.5830           0.0000          0.0000            51.67         2.38          0.1600            0.0000           8.2667       PFind                   None            0.00    0.00    None
 35.6400         2.5170           0.0000          0.0000            55.00         2.53          0.1000            0.0000           8.8000       PFind                   None            0.00    0.00    None
 36.6600         2.4493           0.0000          0.0000           140.00         6.44          0.0400            0.0000          19.6000       PFind                   None            0.00    0.00    None
 37.8200         2.3768           0.0000          0.0000            62.50         2.88          0.1600            0.0000           8.7500       PFind                   None            0.00    0.00    None
 40.0600         2.2489           0.0000          0.0000            39.17         1.80          0.0800            0.0000           1.5667       PFind                   None            0.00    0.00    None
 41.8200         2.1582           0.0000          0.0000            47.50         2.19          0.1000            0.0000           4.7500       PFind                   None            0.00    0.00    None
 44.0000         2.0562           0.0000          0.0000            40.83         1.88          0.1600            0.0000           1.6333       PFind                   None            0.00    0.00    None
 48.2400         1.8849           0.0000          0.0000            56.67         2.61          0.1400            0.0000           7.9333       PFind                   None            0.00    0.00    None
 50.7000         1.7991           0.0000          0.0000            54.17         2.49          0.1600            0.0000           3.2500       PFind                   None            0.00    0.00    None
 51.2400         1.7814           0.0000          0.0000            57.50         2.65          0.1600            0.0000           3.4500       PFind                   None            0.00    0.00    None
 55.1000         1.6654           0.0000          0.0000            51.67         2.38          0.1400            0.0000           7.2333       PFind                   None            0.00    0.00    None
 55.5800         1.6521           0.0000          0.0000            44.17         2.03          0.0600            0.0000           2.6500       PFind                   None            0.00    0.00    None
 57.0200         1.6138           0.0000          0.0000           160.00         7.36          0.1000            0.0000           3.2000       PFind                   None            0.00    0.00    None
 59.3200         1.5566           0.0000          0.0000            39.17         1.80          0.0600            0.0000           2.3500       PFind                   None            0.00    0.00    None
 60.2200         1.5355           0.0000          0.0000           123.33         5.67          0.1000            0.0000          14.8000       PFind                   None            0.00    0.00    None
 64.1200         1.4512           0.0000          0.0000            40.83         1.88          0.0600            0.0000           4.9000       PFind                   None            0.00    0.00    None