Folder: Non-Linear-XRD-Inversion/Generating XRD fingerprints/INPUT/Detrital data (part 46)

File: G74_pf_RT.txt
Filename:
	C:\Program Files\Thermo Electron\WinXRD\Datafiles\FIEN2\GEO\G74_RT.pk

File Created:
	February 25, 2021 - 09:58 AM

Specimen Id:
	G74_RT

Specimen Name:

Specimen Description:

Comment:
Scan Type: 2Theta Scan
Start Angle: 3 deg.
Stop Angle: 65 deg.
Num Points: 3101
Step Size: 0.02 deg.
Scan Rate: 1.000000
Scan Mode: Continuous
Wavelength: 1.540562
\Kalpha1: 1.540562	\Kalpha2: 1.544390	\Kbeta: 1.392218

Optics:
		Detector:
			 Type: Fixed Slits
		Tube:
			 Type: Fixed Slits

Datas:
Peaks:

Position        Dspace          ESD(P)          Corr.Fact       Intensity       Rel.Int.        FWHM(L)         ESD(L)          Area            Source                  Curve           Strain  CSize   CSize_Source
[deg]           [A]             [deg]           [deg]           [CPS]           [CPS]           [deg]           [deg]           [deg]           [--]                    [--]            [--]    [--]    [--]
  4.7600        18.5490           0.0000          0.0000            58.33         1.74          0.0800            0.0000           3.5000       PFind                   None            0.00    0.00    None
  5.4200        16.2916           0.0000          0.0000            54.17         1.62          0.1000            0.0000           0.0000       PFind                   None            0.00    0.00    None
  6.1000        14.4770           0.0000          0.0000           123.33         3.68          0.0200            0.0000          12.3333       PFind                   None            0.00    0.00    None
  6.9600        12.6899           0.0000          0.0000            31.67         0.95          0.1000            0.0000           5.0667       PFind                   None            0.00    0.00    None
  7.6200        11.5922           0.0000          0.0000            40.00         1.19          0.0200            0.0000           1.6000       PFind                   None            0.00    0.00    None
  9.0200         9.7959           0.0000          0.0000            50.83         1.52          0.1200            0.0000           8.1333       PFind                   None            0.00    0.00    None
  9.5600         9.2437           0.0000          0.0000            29.17         0.87          0.1000            0.0000           1.7500       PFind                   None            0.00    0.00    None
 10.8600         8.1400           0.0000          0.0000            35.00         1.05          0.0600            0.0000           1.4000       PFind                   None            0.00    0.00    None
 11.8000         7.4935           0.0000          0.0000            30.83         0.92          0.0600            0.0000           2.4667       PFind                   None            0.00    0.00    None
 12.9800         6.8148           0.0000          0.0000            26.67         0.80          0.0600            0.0000           1.6000       PFind                   None            0.00    0.00    None
 14.0800         6.2848           0.0000          0.0000            27.50         0.82          0.0000            0.0000           1.1000       PFind                   None            0.00    0.00    None
 15.1200         5.8548           0.0000          0.0000            27.50         0.82          0.0600            0.0000           1.1000       PFind                   None            0.00    0.00    None
 18.0200         4.9186           0.0000          0.0000            33.33         1.00          0.1000            0.0000           0.0000       PFind                   None            0.00    0.00    None
 18.9200         4.6866           0.0000          0.0000            25.00         0.75          0.1600            0.0000           0.0000       PFind                   None            0.00    0.00    None
 20.0400         4.4271           0.0000          0.0000            28.33         0.85          0.0000            0.0000           4.5333       PFind                   None            0.00    0.00    None
 22.3200         3.9798           0.0000          0.0000            26.67         0.80          0.0400            0.0000           2.6667       PFind                   None            0.00    0.00    None
 23.9400         3.7140           0.0000          0.0000            40.00         1.19          0.0200            0.0000           4.0000       PFind                   None            0.00    0.00    None
 25.0600         3.5505           0.0000          0.0000           204.17         6.10          0.0400            0.0000          20.4167       PFind                   None            0.00    0.00    None
 26.5200         3.3582           0.0000          0.0000          3347.50       100.00          0.0600            0.0000         334.7500       PFind                   None            0.00    0.00    None
 28.0000         3.1840           0.0000          0.0000           240.83         7.19          0.0000            0.0000          24.0833       PFind                   None            0.00    0.00    None
 29.5600         3.0194           0.0000          0.0000            25.83         0.77          0.0800            0.0000           0.5167       PFind                   None            0.00    0.00    None
 30.6600         2.9136           0.0000          0.0000            55.83         1.67          0.1000            0.0000           5.5833       PFind                   None            0.00    0.00    None
 31.9800         2.7962           0.0000          0.0000            51.67         1.54          0.1200            0.0000           4.1333       PFind                   None            0.00    0.00    None
 33.8200         2.6482           0.0000          0.0000            59.17         1.77          0.0400            0.0000           1.1833       PFind                   None            0.00    0.00    None
 35.5200         2.5253           0.0000          0.0000            70.83         2.12          0.0600            0.0000           8.5000       PFind                   None            0.00    0.00    None
 37.0400         2.4250           0.0000          0.0000            25.00         0.75          0.0600            0.0000           1.0000       PFind                   None            0.00    0.00    None
 38.4200         2.3411           0.0000          0.0000            25.00         0.75          0.0200            0.0000           2.0000       PFind                   None            0.00    0.00    None
 40.1800         2.2425           0.0000          0.0000            88.33         2.64          0.0800            0.0000           5.3000       PFind                   None            0.00    0.00    None
 41.7000         2.1642           0.0000          0.0000            35.83         1.07          0.0800            0.0000           2.1500       PFind                   None            0.00    0.00    None
 43.5000         2.0787           0.0000          0.0000            70.00         2.09          0.1400            0.0000           9.8000       PFind                   None            0.00    0.00    None
 45.6000         1.9877           0.0000          0.0000           202.50         6.05          0.1600            0.0000          32.4000       PFind                   None            0.00    0.00    None
 47.9800         1.8946           0.0000          0.0000            45.83         1.37          0.1000            0.0000           2.7500       PFind                   None            0.00    0.00    None
 50.0400         1.8213           0.0000          0.0000           551.67        16.48          0.0400            0.0000          33.1000       PFind                   None            0.00    0.00    None
 51.1600         1.7840           0.0000          0.0000            40.83         1.22          0.0600            0.0000           3.2667       PFind                   None            0.00    0.00    None
 54.9200         1.6704           0.0000          0.0000            96.67         2.89          0.0800            0.0000           7.7333       PFind                   None            0.00    0.00    None
 55.8600         1.6445           0.0000          0.0000            50.00         1.49          0.0800            0.0000           3.0000       PFind                   None            0.00    0.00    None
 57.1600         1.6102           0.0000          0.0000            29.17         0.87          0.0600            0.0000           0.0000       PFind                   None            0.00    0.00    None
 59.0800         1.5623           0.0000          0.0000            29.17         0.87          0.0400            0.0000           1.1667       PFind                   None            0.00    0.00    None
 60.7000         1.5245           0.0000          0.0000            25.00         0.75          0.0200            0.0000           1.0000       PFind                   None            0.00    0.00    None
 61.2400         1.5123           0.0000          0.0000            57.50         1.72          0.1600            0.0000           4.6000       PFind                   None            0.00    0.00    None
 62.4800         1.4852           0.0000          0.0000            25.00         0.75          0.1600            0.0000           0.5000       PFind                   None            0.00    0.00    None
 64.1200         1.4512           0.0000          0.0000            32.50         0.97          0.1400            0.0000           5.2000       PFind                   None            0.00    0.00    None

File: G75_pf_RT.txt
Filename:
	C:\Program Files\Thermo Electron\WinXRD\Datafiles\FIEN2\GEO\G75_RT.pk

File Created:
	February 25, 2021 - 09:58 AM

Specimen Id:
	G75_RT

Specimen Name:

Specimen Description:

Comment:
Scan Type: 2Theta Scan
Start Angle: 3 deg.
Stop Angle: 65 deg.
Num Points: 3101
Step Size: 0.02 deg.
Scan Rate: 1.000000
Scan Mode: Continuous
Wavelength: 1.540562
\Kalpha1: 1.540562	\Kalpha2: 1.544390	\Kbeta: 1.392218

Optics:
		Detector:
			 Type: Fixed Slits
		Tube:
			 Type: Fixed Slits

Datas:
Peaks:

Position        Dspace          ESD(P)          Corr.Fact       Intensity       Rel.Int.        FWHM(L)         ESD(L)          Area            Source                  Curve           Strain  CSize   CSize_Source
[deg]           [A]             [deg]           [deg]           [CPS]           [CPS]           [deg]           [deg]           [deg]           [--]                    [--]            [--]    [--]    [--]
  4.6600        18.9468           0.0000          0.0000            65.00         2.82          0.0800            0.0000           5.2000       PFind                   None            0.00    0.00    None
  5.7000        15.4919           0.0000          0.0000            62.50         2.71          0.0600            0.0000           0.0000       PFind                   None            0.00    0.00    None
  6.7400        13.1037           0.0000          0.0000            52.50         2.28          0.1400            0.0000           1.0500       PFind                   None            0.00    0.00    None
  7.5600        11.6841           0.0000          0.0000            35.00         1.52          0.1400            0.0000           2.8000       PFind                   None            0.00    0.00    None
  7.9800        11.0701           0.0000          0.0000            34.17         1.48          0.1600            0.0000           2.0500       PFind                   None            0.00    0.00    None
  9.1600         9.6465           0.0000          0.0000            40.83         1.77          0.0000            0.0000           4.9000       PFind                   None            0.00    0.00    None
  9.9400         8.8912           0.0000          0.0000            44.17         1.92          0.1400            0.0000           0.0000       PFind                   None            0.00    0.00    None
 11.0800         7.9788           0.0000          0.0000            36.67         1.59          0.0200            0.0000           2.2000       PFind                   None            0.00    0.00    None
 11.7000         7.5574           0.0000          0.0000            31.67         1.38          0.1400            0.0000           2.5333       PFind                   None            0.00    0.00    None
 13.0800         6.7630           0.0000          0.0000            28.33         1.23          0.0800            0.0000           0.5667       PFind                   None            0.00    0.00    None
 13.7600         6.4302           0.0000          0.0000            40.83         1.77          0.0400            0.0000           5.7167       PFind                   None            0.00    0.00    None
 15.8200         5.5973           0.0000          0.0000            25.83         1.12          0.0200            0.0000           0.0000       PFind                   None            0.00    0.00    None
 18.5000         4.7920           0.0000          0.0000           128.33         5.57          0.0000            0.0000          15.4000       PFind                   None            0.00    0.00    None
 19.8000         4.4802           0.0000          0.0000            45.83         1.99          0.1000            0.0000           3.6667       PFind                   None            0.00    0.00    None
 21.9400         4.0478           0.0000          0.0000           156.67         6.80          0.0000            0.0000          15.6667       PFind                   None            0.00    0.00    None
 22.9400         3.8736           0.0000          0.0000            55.00         2.39          0.0800            0.0000           4.4000       PFind                   None            0.00    0.00    None
 24.7800         3.5900           0.0000          0.0000           150.00         6.51          0.0400            0.0000          24.0000       PFind                   None            0.00    0.00    None
 25.9200         3.4346           0.0000          0.0000            27.50         1.19          0.1200            0.0000           1.1000       PFind                   None            0.00    0.00    None
 27.1000         3.2877           0.0000          0.0000            25.83         1.12          0.0400            0.0000           0.0000       PFind                   None            0.00    0.00    None
 28.2200         3.1597           0.0000          0.0000            51.67         2.24          0.1600            0.0000           5.1667       PFind                   None            0.00    0.00    None
 30.1400         2.9626           0.0000          0.0000            48.33         2.10          0.0200            0.0000           6.7667       PFind                   None            0.00    0.00    None
 31.4600         2.8413           0.0000          0.0000            70.00         3.04          0.0800            0.0000           5.6000       PFind                   None            0.00    0.00    None
 33.8400         2.6467           0.0000          0.0000            28.33         1.23          0.0000            0.0000           0.5667       PFind                   None            0.00    0.00    None
 35.4400         2.5308           0.0000          0.0000           170.83         7.42          0.0800            0.0000          27.3333       PFind                   None            0.00    0.00    None
 36.8800         2.4352           0.0000          0.0000            30.83         1.34          0.0200            0.0000           1.8500       PFind                   None            0.00    0.00    None
 37.5600         2.3927           0.0000          0.0000            56.67         2.46          0.0000            0.0000           9.0667       PFind                   None            0.00    0.00    None
 39.7400         2.2663           0.0000          0.0000            33.33         1.45          0.1400            0.0000           0.6667       PFind                   None            0.00    0.00    None
 41.8800         2.1553           0.0000          0.0000            90.83         3.94          0.1400            0.0000          10.9000       PFind                   None            0.00    0.00    None
 44.3800         2.0395           0.0000          0.0000           259.17        11.26          0.0800            0.0000          41.4667       PFind                   None            0.00    0.00    None
 46.6400         1.9458           0.0000          0.0000            26.67         1.16          0.0600            0.0000           0.5333       PFind                   None            0.00    0.00    None
 49.7600         1.8309           0.0000          0.0000            40.00         1.74          0.1600            0.0000           5.6000       PFind                   None            0.00    0.00    None
 52.0600         1.7553           0.0000          0.0000            39.17         1.70          0.0800            0.0000           3.9167       PFind                   None            0.00    0.00    None
 53.2000         1.7203           0.0000          0.0000            30.83         1.34          0.0000            0.0000           0.6167       PFind                   None            0.00    0.00    None
 55.2200         1.6621           0.0000          0.0000            55.83         2.42          0.0800            0.0000           5.5833       PFind                   None            0.00    0.00    None
 56.4600         1.6285           0.0000          0.0000           175.83         7.64          0.1200            0.0000          10.5500       PFind                   None            0.00    0.00    None
 58.7200         1.5711           0.0000          0.0000            35.83         1.56          0.1200            0.0000           0.0000       PFind                   None            0.00    0.00    None
 60.3800         1.5318           0.0000          0.0000            29.17         1.27          0.0800            0.0000           3.5000       PFind                   None            0.00    0.00    None
 60.8600         1.5208           0.0000          0.0000            33.33         1.45          0.0200            0.0000           2.0000       PFind                   None            0.00    0.00    None
 61.9200         1.4973           0.0000          0.0000            42.50         1.85          0.1000            0.0000           1.7000       PFind                   None            0.00    0.00    None
 64.0800         1.4520           0.0000          0.0000            30.83         1.34          0.0800            0.0000           0.6167       PFind                   None            0.00    0.00    None