Folder: Non-Linear-XRD-Inversion/Generating XRD fingerprints/INPUT/Source data (part 2)

File: GR04.txt
Position	Dspace	ESD(P)	Corr.Fact	Intensity	Rel.Int.	FWHM(L)	ESD(L)	FWHM(R)	ESD(R)	Area
[deg]	[A]	[deg]	[deg]	[CPS]	[CPS]	[deg]	[deg]	[deg]	[deg]	[deg]
2.6400	33.4377	0.0000	0.0000	86.67	4.67	0.1600	0.0000	0.0000	0.0000	6.9333
3.0600	28.8491	0.0000	0.0000	70.83	3.82	0.0200	0.0000	0.0000	0.0000	5.6667
3.2400	27.2467	0.0000	0.0000	71.67	3.87	0.1600	0.0000	0.0000	0.0000	2.8667
3.3600	26.2739	0.0000	0.0000	61.67	3.33	0.1000	0.0000	0.0000	0.0000	4.9333
3.5400	24.9383	0.0000	0.0000	64.17	3.46	0.0600	0.0000	0.0000	0.0000	1.2833
3.6200	24.3874	0.0000	0.0000	70.00	3.78	0.1000	0.0000	0.0000	0.0000	1.4000
3.9400	22.4074	0.0000	0.0000	57.50	3.10	0.1600	0.0000	0.0000	0.0000	6.9000
4.0600	21.7454	0.0000	0.0000	41.67	2.25	0.0600	0.0000	0.0000	0.0000	0.0000
4.2200	20.9212	0.0000	0.0000	50.83	2.74	0.1200	0.0000	0.0000	0.0000	7.1167
4.3400	20.3430	0.0000	0.0000	45.00	2.43	0.1600	0.0000	0.0000	0.0000	4.5000
4.4800	19.7076	0.0000	0.0000	40.00	2.16	0.1200	0.0000	0.0000	0.0000	6.4000
4.7600	18.5490	0.0000	0.0000	49.17	2.65	0.0800	0.0000	0.0000	0.0000	0.9833
5.0400	17.5191	0.0000	0.0000	46.67	2.52	0.1600	0.0000	0.0000	0.0000	1.8667
5.6200	15.7123	0.0000	0.0000	41.67	2.25	0.0800	0.0000	0.0000	0.0000	2.5000
5.8600	15.0693	0.0000	0.0000	41.67	2.25	0.1600	0.0000	0.0000	0.0000	5.8333
6.0400	14.6206	0.0000	0.0000	41.67	2.25	0.1000	0.0000	0.0000	0.0000	3.3333
6.1000	14.4770	0.0000	0.0000	48.33	2.61	0.1000	0.0000	0.0000	0.0000	4.8333
6.3400	13.9295	0.0000	0.0000	41.67	2.25	0.1600	0.0000	0.0000	0.0000	3.3333
6.4200	13.7561	0.0000	0.0000	46.67	2.52	0.0600	0.0000	0.0000	0.0000	4.6667
6.5800	13.4219	0.0000	0.0000	43.33	2.34	0.1600	0.0000	0.0000	0.0000	3.4667
6.8800	12.8373	0.0000	0.0000	42.50	2.29	0.1400	0.0000	0.0000	0.0000	0.0000
7.6400	11.5619	0.0000	0.0000	40.00	2.16	0.1600	0.0000	0.0000	0.0000	2.4000
8.6800	10.1788	0.0000	0.0000	68.33	3.69	0.1200	0.0000	0.0000	0.0000	6.8333
8.9000	9.9277	0.0955	0.0000	24.00	1.29	0.0804	0.7979	0.0804	0.0000	15.7294
9.1000	9.7099	0.0000	0.0000	198.33	10.70	0.0400	0.0000	0.0000	0.0000	15.8667
9.7200	9.0919	0.0000	0.0000	161.67	8.72	0.1000	0.0000	0.0000	0.0000	9.7000
9.9600	8.8734	0.0000	0.0000	40.00	2.16	0.1600	0.0000	0.0000	0.0000	1.6000
10.4200	8.4827	0.0000	0.0000	1203.33	64.90	0.0800	0.0000	0.0000	0.0000	96.2667
10.9600	8.0659	0.0000	0.0000	60.00	3.24	0.1200	0.0000	0.0000	0.0000	6.0000
12.4200	7.1208	0.0000	0.0000	81.67	4.40	0.0600	0.0000	0.0000	0.0000	6.5333
13.7600	6.4302	0.0000	0.0000	112.50	6.07	0.1000	0.0000	0.0000	0.0000	9.0000
13.9800	6.3295	0.0000	0.0000	59.17	3.19	0.1600	0.0000	0.0000	0.0000	3.5500
14.9000	5.9407	0.0000	0.0000	40.00	2.16	0.1200	0.0000	0.0000	0.0000	0.0000
15.7600	5.6184	0.0000	0.0000	53.33	2.88	0.1600	0.0000	0.0000	0.0000	2.1333
17.3800	5.0982	0.0000	0.0000	62.50	3.37	0.1200	0.0000	0.0000	0.0000	10.0000
18.0400	4.9132	0.0000	0.0000	60.83	3.28	0.1600	0.0000	0.0000	0.0000	4.8667
18.3400	4.8335	0.0000	0.0000	149.17	8.04	0.0800	0.0000	0.0000	0.0000	11.9333
18.7200	4.7362	0.0000	0.0000	39.17	2.11	0.0600	0.0000	0.0000	0.0000	3.1333
19.6000	4.5255	0.0000	0.0000	109.17	5.89	0.0800	0.0000	0.0000	0.0000	10.9167
19.8400	4.4713	0.0000	0.0000	42.50	2.29	0.1200	0.0000	0.0000	0.0000	3.4000
21.0000	4.2268	0.0000	0.0000	60.83	3.28	0.0800	0.0000	0.0000	0.0000	6.0833
21.9800	4.0405	0.0000	0.0000	225.00	12.13	0.0200	0.0000	0.0000	0.0000	22.5000
22.8400	3.8903	0.0000	0.0000	40.00	2.16	0.0600	0.0000	0.0000	0.0000	6.4000
22.9800	3.8669	0.0000	0.0000	46.67	2.52	0.1600	0.0000	0.0000	0.0000	4.6667
23.4600	3.7889	0.0000	0.0000	188.33	10.16	0.0600	0.0000	0.0000	0.0000	11.3000
24.2200	3.6717	0.0000	0.0000	169.17	9.12	0.0800	0.0000	0.0000	0.0000	23.6833
25.0800	3.5477	0.0000	0.0000	70.00	3.78	0.0800	0.0000	0.0000	0.0000	5.6000
25.3000	3.5173	0.0000	0.0000	66.67	3.60	0.1200	0.0000	0.0000	0.0000	6.6667
25.4800	3.4929	0.0000	0.0000	81.67	4.40	0.1000	0.0000	0.0000	0.0000	4.9000
26.2200	3.3960	0.0000	0.0000	234.17	12.63	0.1600	0.0000	0.0000	0.0000	32.7833
26.5600	3.3533	0.0000	0.0000	50.00	2.70	0.1200	0.0000	0.0000	0.0000	6.0000
26.6155	3.3464	0.0058	0.0000	44.00	2.37	0.0572	0.0185	0.0572	0.0000	4.1027
27.2000	3.2758	0.0000	0.0000	184.17	9.93	0.1400	0.0000	0.0000	0.0000	29.4667
27.3600	3.2570	0.0000	0.0000	756.67	40.81	0.0800	0.0000	0.0000	0.0000	15.1333
27.8000	3.2065	0.0000	0.0000	1854.17	100.00	0.0800	0.0000	0.0000	0.0000	148.3333
28.2200	3.1597	0.0000	0.0000	255.00	13.75	0.1400	0.0000	0.0000	0.0000	25.5000
28.4600	3.1336	0.0000	0.0000	1025.00	55.28	0.0400	0.0000	0.0000	0.0000	102.5000
29.7600	2.9996	0.0000	0.0000	130.00	7.01	0.1000	0.0000	0.0000	0.0000	15.6000
30.2800	2.9493	0.0000	0.0000	362.50	19.55	0.0200	0.0000	0.0000	0.0000	43.5000
30.8000	2.9006	0.0000	0.0000	252.50	13.62	0.1000	0.0000	0.0000	0.0000	30.3000
31.1600	2.8679	0.0000	0.0000	52.50	2.83	0.1200	0.0000	0.0000	0.0000	1.0500
31.8200	2.8099	0.0000	0.0000	174.17	9.39	0.0800	0.0000	0.0000	0.0000	27.8667
32.1000	2.7861	0.0000	0.0000	130.00	7.01	0.0600	0.0000	0.0000	0.0000	7.8000
32.6800	2.7379	0.0000	0.0000	98.33	5.30	0.0800	0.0000	0.0000	0.0000	13.7667
33.0000	2.7121	0.0000	0.0000	291.67	15.73	0.1200	0.0000	0.0000	0.0000	35.0000
33.4000	2.6805	0.0000	0.0000	72.50	3.91	0.1200	0.0000	0.0000	0.0000	10.1500
33.7800	2.6512	0.0000	0.0000	125.00	6.74	0.0800	0.0000	0.0000	0.0000	12.5000
34.4800	2.5990	0.0000	0.0000	257.50	13.89	0.0000	0.0000	0.0000	0.0000	25.7500
34.9400	2.5658	0.0000	0.0000	119.17	6.43	0.0600	0.0000	0.0000	0.0000	9.5333
35.0200	2.5602	0.0000	0.0000	65.83	3.55	0.1600	0.0000	0.0000	0.0000	10.5333
35.2200	2.5461	0.0000	0.0000	89.17	4.81	0.1000	0.0000	0.0000	0.0000	14.2667
35.4000	2.5335	0.0000	0.0000	118.33	6.38	0.0400	0.0000	0.0000	0.0000	18.9333
36.6600	2.4493	0.0000	0.0000	80.83	4.36	0.0800	0.0000	0.0000	0.0000	9.7000
37.4800	2.3976	0.0000	0.0000	90.83	4.90	0.0800	0.0000	0.0000	0.0000	14.5333
38.4200	2.3411	0.0000	0.0000	77.50	4.18	0.1000	0.0000	0.0000	0.0000	12.4000
38.7600	2.3213	0.0000	0.0000	66.67	3.60	0.1200	0.0000	0.0000	0.0000	10.6667
39.2800	2.2918	0.0000	0.0000	62.50	3.37	0.1400	0.0000	0.0000	0.0000	10.0000
39.3800	2.2862	0.0000	0.0000	98.33	5.30	0.1600	0.0000	0.0000	0.0000	11.8000
41.7000	2.1642	0.0000	0.0000	88.33	4.76	0.1000	0.0000	0.0000	0.0000	14.1333
42.2400	2.1378	0.0000	0.0000	47.50	2.56	0.0800	0.0000	0.0000	0.0000	5.7000
42.3600	2.1320	0.0000	0.0000	44.17	2.38	0.0000	0.0000	0.0000	0.0000	7.0667
42.7400	2.1139	0.0000	0.0000	135.83	7.33	0.0000	0.0000	0.0000	0.0000	13.5833
44.2000	2.0474	0.0000	0.0000	48.33	2.61	0.0600	0.0000	0.0000	0.0000	5.8000
44.8600	2.0188	0.0000	0.0000	110.83	5.98	0.0800	0.0000	0.0000	0.0000	17.7333
45.2400	2.0027	0.0000	0.0000	55.00	2.97	0.1600	0.0000	0.0000	0.0000	6.6000
45.3400	1.9985	0.0000	0.0000	50.00	2.70	0.1600	0.0000	0.0000	0.0000	8.0000
47.1200	1.9271	0.0000	0.0000	105.83	5.71	0.0600	0.0000	0.0000	0.0000	16.9333
48.0800	1.8908	0.0000	0.0000	103.33	5.57	0.0400	0.0000	0.0000	0.0000	8.2667
48.3600	1.8805	0.0000	0.0000	69.17	3.73	0.1000	0.0000	0.0000	0.0000	8.3000
48.6400	1.8704	0.0000	0.0000	115.00	6.20	0.0800	0.0000	0.0000	0.0000	18.4000
49.7400	1.8316	0.0000	0.0000	42.50	2.29	0.0600	0.0000	0.0000	0.0000	2.5500
49.9000	1.8261	0.0000	0.0000	61.67	3.33	0.1000	0.0000	0.0000	0.0000	6.1667
50.0000	1.8226	0.0000	0.0000	49.17	2.65	0.1600	0.0000	0.0000	0.0000	3.9333
50.5400	1.8044	0.0000	0.0000	49.17	2.65	0.1600	0.0000	0.0000	0.0000	7.8667
51.0800	1.7866	0.0000	0.0000	88.33	4.76	0.0800	0.0000	0.0000	0.0000	5.3000
52.1800	1.7515	0.0000	0.0000	60.00	3.24	0.1600	0.0000	0.0000	0.0000	9.6000
53.1800	1.7209	0.0000	0.0000	50.83	2.74	0.1000	0.0000	0.0000	0.0000	8.1333
53.4200	1.7137	0.0000	0.0000	48.33	2.61	0.1600	0.0000	0.0000	0.0000	0.0000
54.2400	1.6897	0.0000	0.0000	43.33	2.34	0.0800	0.0000	0.0000	0.0000	3.4667
55.6400	1.6505	0.0000	0.0000	87.50	4.72	0.1000	0.0000	0.0000	0.0000	14.0000
55.8200	1.6456	0.0000	0.0000	76.67	4.13	0.1400	0.0000	0.0000	0.0000	7.6667
55.9600	1.6418	0.0000	0.0000	48.33	2.61	0.1200	0.0000	0.0000	0.0000	7.7333
56.1800	1.6359	0.0000	0.0000	93.33	5.03	0.0800	0.0000	0.0000	0.0000	5.6000
56.6600	1.6232	0.0000	0.0000	76.67	4.13	0.0600	0.0000	0.0000	0.0000	9.2000
56.8400	1.6185	0.0000	0.0000	65.83	3.55	0.0200	0.0000	0.0000	0.0000	9.2167
56.9800	1.6148	0.0000	0.0000	51.67	2.79	0.1600	0.0000	0.0000	0.0000	8.2667
58.0200	1.5883	0.0000	0.0000	105.00	5.66	0.0000	0.0000	0.0000	0.0000	10.5000
58.1600	1.5848	0.0000	0.0000	80.83	4.36	0.1400	0.0000	0.0000	0.0000	12.9333
58.5200	1.5759	0.0000	0.0000	324.17	17.48	0.0200	0.0000	0.0000	0.0000	25.9333
58.6800	1.5720	0.0000	0.0000	169.17	9.12	0.1000	0.0000	0.0000	0.0000	10.1500
59.3200	1.5566	0.0000	0.0000	42.50	2.29	0.1600	0.0000	0.0000	0.0000	2.5500
59.9400	1.5420	0.0000	0.0000	61.67	3.33	0.1400	0.0000	0.0000	0.0000	7.4000
61.6400	1.5034	0.0000	0.0000	60.00	3.24	0.1600	0.0000	0.0000	0.0000	9.6000
61.8400	1.4991	0.0000	0.0000	57.50	3.10	0.1600	0.0000	0.0000	0.0000	9.2000
63.9400	1.4548	0.0000	0.0000	54.17	2.92	0.1200	0.0000	0.0000	0.0000	6.5000
64.7200	1.4391	0.0000	0.0000	42.50	2.29	0.1000	0.0000	0.0000	0.0000	2.5500

File: GR07.txt
Position	Dspace	ESD(P)	Corr.Fact	Intensity	Rel.Int.	FWHM(L)	ESD(L)	FWHM(R)	ESD(R)	Area
[deg]	[A]	[deg]	[deg]	[CPS]	[CPS]	[deg]	[deg]	[deg]	[deg]	[deg]
2.7000	32.6948	0.0000	0.0000	106.67	0.81	0.1000	0.0000	0.0000	0.0000	2.1333
2.8600	30.8660	0.0000	0.0000	73.33	0.56	0.1200	0.0000	0.0000	0.0000	5.8667
3.0400	29.0388	0.0000	0.0000	73.33	0.56	0.1600	0.0000	0.0000	0.0000	4.4000
3.2200	27.4159	0.0000	0.0000	71.67	0.54	0.1200	0.0000	0.0000	0.0000	7.1667
3.4000	25.9649	0.0000	0.0000	60.83	0.46	0.1200	0.0000	0.0000	0.0000	6.0833
3.5200	25.0800	0.0000	0.0000	66.67	0.50	0.1200	0.0000	0.0000	0.0000	5.3333
3.7000	23.8603	0.0000	0.0000	65.83	0.50	0.0800	0.0000	0.0000	0.0000	7.9000
4.3200	20.4372	0.0000	0.0000	63.33	0.48	0.1600	0.0000	0.0000	0.0000	1.2667
11.6200	7.6092	0.0000	0.0000	85.00	0.64	0.1000	0.0000	0.0000	0.0000	3.4000
12.1200	7.2964	0.0000	0.0000	13205.83	100.00	0.0200	0.0000	0.0000	0.0000	792.3500
12.5600	7.0418	0.0000	0.0000	140.83	1.07	0.1200	0.0000	0.0000	0.0000	22.5333
13.1800	6.7119	0.0000	0.0000	95.83	0.73	0.0600	0.0000	0.0000	0.0000	15.3333
13.2800	6.6616	0.0000	0.0000	100.83	0.76	0.0200	0.0000	0.0000	0.0000	16.1333
17.2600	5.1334	0.0000	0.0000	364.17	2.76	0.1600	0.0000	0.0000	0.0000	21.8500
20.5600	4.3163	0.0000	0.0000	72.50	0.55	0.1600	0.0000	0.0000	0.0000	2.9000
22.8000	3.8971	0.0000	0.0000	1081.67	8.19	0.0600	0.0000	0.0000	0.0000	86.5333
23.7800	3.7386	0.0000	0.0000	135.00	1.02	0.0600	0.0000	0.0000	0.0000	8.1000
24.5200	3.6274	0.0000	0.0000	6781.67	51.35	0.0800	0.0000	0.0000	0.0000	949.4333
25.4600	3.4956	0.0000	0.0000	280.00	2.12	0.0800	0.0000	0.0000	0.0000	28.0000
29.5600	3.0194	0.0000	0.0000	77.50	0.59	0.0600	0.0000	0.0000	0.0000	7.7500
29.7200	3.0035	0.0000	0.0000	80.83	0.61	0.0600	0.0000	0.0000	0.0000	12.9333
32.2200	2.7760	0.0000	0.0000	727.50	5.51	0.1200	0.0000	0.0000	0.0000	72.7500
34.7800	2.5773	0.0000	0.0000	65.83	0.50	0.0800	0.0000	0.0000	0.0000	2.6333
35.6000	2.5198	0.0000	0.0000	1055.00	7.99	0.1000	0.0000	0.0000	0.0000	126.6000
36.4200	2.4649	0.0000	0.0000	697.50	5.28	0.0200	0.0000	0.0000	0.0000	41.8500
37.0800	2.4225	0.0000	0.0000	393.33	2.98	0.1600	0.0000	0.0000	0.0000	55.0667
38.2000	2.3540	0.0000	0.0000	212.50	1.61	0.1000	0.0000	0.0000	0.0000	8.5000
39.6000	2.2740	0.0000	0.0000	864.17	6.54	0.0800	0.0000	0.0000	0.0000	34.5667
39.9600	2.2543	0.0000	0.0000	373.33	2.83	0.1600	0.0000	0.0000	0.0000	14.9333
40.5000	2.2255	0.0000	0.0000	78.33	0.59	0.0800	0.0000	0.0000	0.0000	9.4000
41.6800	2.1652	0.0000	0.0000	315.83	2.39	0.0400	0.0000	0.0000	0.0000	31.5833
41.9200	2.1533	0.0000	0.0000	241.67	1.83	0.1400	0.0000	0.0000	0.0000	38.6667
46.4600	1.9529	0.0000	0.0000	146.67	1.11	0.0400	0.0000	0.0000	0.0000	2.9333
46.5800	1.9482	0.0000	0.0000	80.83	0.61	0.1200	0.0000	0.0000	0.0000	0.0000
48.4000	1.8791	0.0000	0.0000	96.67	0.73	0.0000	0.0000	0.0000	0.0000	5.8000
49.7800	1.8302	0.0000	0.0000	114.17	0.86	0.1200	0.0000	0.0000	0.0000	18.2667
50.2000	1.8158	0.0000	0.0000	217.50	1.65	0.1000	0.0000	0.0000	0.0000	30.4500
50.8800	1.7932	0.0000	0.0000	93.33	0.71	0.1400	0.0000	0.0000	0.0000	3.7333
51.1200	1.7853	0.0000	0.0000	119.17	0.90	0.0400	0.0000	0.0000	0.0000	14.3000
52.1600	1.7521	0.0000	0.0000	907.50	6.87	0.1000	0.0000	0.0000	0.0000	54.4500
52.3000	1.7478	0.0000	0.0000	516.67	3.91	0.0400	0.0000	0.0000	0.0000	51.6667
52.4400	1.7434	0.0000	0.0000	360.83	2.73	0.0600	0.0000	0.0000	0.0000	43.3000
54.8200	1.6732	0.0000	0.0000	90.83	0.69	0.0400	0.0000	0.0000	0.0000	5.4500
56.0400	1.6397	0.0000	0.0000	74.17	0.56	0.1400	0.0000	0.0000	0.0000	5.9333
56.1800	1.6359	0.0000	0.0000	65.00	0.49	0.1600	0.0000	0.0000	0.0000	9.1000
56.7400	1.6211	0.0000	0.0000	114.17	0.86	0.0400	0.0000	0.0000	0.0000	9.1333
56.9000	1.6169	0.0000	0.0000	116.67	0.88	0.0400	0.0000	0.0000	0.0000	7.0000
59.1600	1.5604	0.0000	0.0000	78.33	0.59	0.1400	0.0000	0.0000	0.0000	10.9667
60.9000	1.5199	0.0000	0.0000	120.00	0.91	0.1400	0.0000	0.0000	0.0000	19.2000
61.1800	1.5136	0.0000	0.0000	68.33	0.52	0.1000	0.0000	0.0000	0.0000	8.2000
61.4000	1.5087	0.0000	0.0000	71.67	0.54	0.1000	0.0000	0.0000	0.0000	11.4667
61.5000	1.5065	0.0000	0.0000	94.17	0.71	0.1600	0.0000	0.0000	0.0000	9.4167
61.7000	1.5021	0.0000	0.0000	90.00	0.68	0.1200	0.0000	0.0000	0.0000	10.8000
61.8600	1.4986	0.0000	0.0000	261.67	1.98	0.0600	0.0000	0.0000	0.0000	26.1667
62.0400	1.4947	0.0000	0.0000	168.33	1.27	0.1000	0.0000	0.0000	0.0000	20.2000
62.6600	1.4814	0.0000	0.0000	405.00	3.07	0.0600	0.0000	0.0000	0.0000	32.4000
62.8400	1.4776	0.0000	0.0000	211.67	1.60	0.1600	0.0000	0.0000	0.0000	16.9333
64.0800	1.4520	0.0000	0.0000	78.33	0.59	0.0800	0.0000	0.0000	0.0000	12.5333
64.2000	1.4495	0.0000	0.0000	86.67	0.66	0.0600	0.0000	0.0000	0.0000	13.8667
64.2400	1.4487	0.0000	0.0000	100.83	0.76	0.1600	0.0000	0.0000	0.0000	12.1000

File: GRmica.txt
Position	Dspace	ESD(P)	Corr.Fact	Intensity	Rel.Int.	FWHM(L)	ESD(L)	FWHM(R)	ESD(R)	Area
[deg]	[A]	[deg]	[deg]	[CPS]	[CPS]	[deg]	[deg]	[deg]	[deg]	[deg]
2.7200	32.4544	0.0000	0.0000	79.17	0.81	0.0200	0.0000	0.0000	0.0000	6.3333
2.8800	30.6517	0.0000	0.0000	112.50	1.15	0.0600	0.0000	0.0000	0.0000	2.2500
3.0600	28.8491	0.0000	0.0000	67.50	0.69	0.0000	0.0000	0.0000	0.0000	8.1000
3.2800	26.9146	0.0000	0.0000	64.17	0.66	0.0800	0.0000	0.0000	0.0000	10.2667
3.3800	26.1185	0.0000	0.0000	65.83	0.67	0.0000	0.0000	0.0000	0.0000	6.5833
3.6200	24.3874	0.0000	0.0000	64.17	0.66	0.1200	0.0000	0.0000	0.0000	6.4167
3.9000	22.6371	0.0000	0.0000	50.83	0.52	0.1200	0.0000	0.0000	0.0000	3.0500
3.9800	22.1823	0.0000	0.0000	85.83	0.88	0.0600	0.0000	0.0000	0.0000	0.0000
4.1000	21.5333	0.0000	0.0000	58.33	0.60	0.0800	0.0000	0.0000	0.0000	2.3333
4.2000	21.0208	0.0000	0.0000	50.00	0.51	0.0800	0.0000	0.0000	0.0000	0.0000
4.3600	20.2498	0.0000	0.0000	48.33	0.50	0.1400	0.0000	0.0000	0.0000	4.8333
4.5400	19.4473	0.0000	0.0000	65.00	0.67	0.0600	0.0000	0.0000	0.0000	0.0000
4.6000	19.1938	0.0000	0.0000	60.83	0.62	0.1400	0.0000	0.0000	0.0000	1.2167
4.7000	18.7856	0.0000	0.0000	48.33	0.50	0.0200	0.0000	0.0000	0.0000	0.9667
5.1200	17.2455	0.0000	0.0000	40.00	0.41	0.1000	0.0000	0.0000	0.0000	6.4000
5.2800	16.7233	0.0000	0.0000	44.17	0.45	0.1600	0.0000	0.0000	0.0000	0.0000
5.3400	16.5355	0.0000	0.0000	45.00	0.46	0.1200	0.0000	0.0000	0.0000	3.6000
5.5200	15.9967	0.0000	0.0000	47.50	0.49	0.0200	0.0000	0.0000	0.0000	0.0000
5.7600	15.3307	0.0000	0.0000	40.83	0.42	0.1600	0.0000	0.0000	0.0000	4.0833
5.9000	14.9672	0.0000	0.0000	34.17	0.35	0.0800	0.0000	0.0000	0.0000	2.0500
6.1200	14.4297	0.0000	0.0000	44.17	0.45	0.0600	0.0000	0.0000	0.0000	3.5333
6.3600	13.8857	0.0000	0.0000	39.17	0.40	0.0600	0.0000	0.0000	0.0000	0.0000
6.4200	13.7561	0.0000	0.0000	36.67	0.38	0.0600	0.0000	0.0000	0.0000	0.0000
6.8200	12.9501	0.0000	0.0000	42.50	0.44	0.1600	0.0000	0.0000	0.0000	3.4000
7.1800	12.3016	0.0000	0.0000	46.67	0.48	0.1200	0.0000	0.0000	0.0000	0.9333
7.4000	11.9364	0.0000	0.0000	36.67	0.38	0.0600	0.0000	0.0000	0.0000	0.0000
7.5800	11.6533	0.0000	0.0000	38.33	0.39	0.1600	0.0000	0.0000	0.0000	2.3000
7.9200	11.1538	0.0000	0.0000	38.33	0.39	0.1000	0.0000	0.0000	0.0000	2.3000
8.7600	10.0860	0.0000	0.0000	3909.17	40.06	0.1200	0.0000	0.0000	0.0000	312.7333
9.2200	9.5838	0.0000	0.0000	56.67	0.58	0.1200	0.0000	0.0000	0.0000	5.6667
9.3000	9.5016	0.0000	0.0000	51.67	0.53	0.1000	0.0000	0.0000	0.0000	5.1667
9.5600	9.2437	0.0000	0.0000	45.00	0.46	0.1400	0.0000	0.0000	0.0000	2.7000
9.6600	9.1483	0.0000	0.0000	40.00	0.41	0.0600	0.0000	0.0000	0.0000	0.8000
9.7800	9.0363	0.0000	0.0000	33.33	0.34	0.0800	0.0000	0.0000	0.0000	4.0000
9.9600	8.8734	0.0000	0.0000	38.33	0.39	0.0600	0.0000	0.0000	0.0000	0.7667
10.7200	8.2459	0.0000	0.0000	40.83	0.42	0.1400	0.0000	0.0000	0.0000	2.4500
10.9800	8.0513	0.0000	0.0000	41.67	0.43	0.0600	0.0000	0.0000	0.0000	0.0000
11.4200	7.7420	0.0000	0.0000	39.17	0.40	0.1200	0.0000	0.0000	0.0000	0.0000
12.3600	7.1553	0.0000	0.0000	64.17	0.66	0.0800	0.0000	0.0000	0.0000	3.8500
17.7200	5.0012	0.0000	0.0000	1861.67	19.08	0.1000	0.0000	0.0000	0.0000	186.1667
18.7000	4.7412	0.0000	0.0000	47.50	0.49	0.0200	0.0000	0.0000	0.0000	3.8000
19.7800	4.4847	0.0000	0.0000	95.83	0.98	0.0800	0.0000	0.0000	0.0000	11.5000
20.7400	4.2792	0.0000	0.0000	1299.17	13.31	0.1000	0.0000	0.0000	0.0000	103.9333
21.5400	4.1221	0.0000	0.0000	37.50	0.38	0.1600	0.0000	0.0000	0.0000	0.0000
22.8000	3.8971	0.0000	0.0000	70.83	0.73	0.0600	0.0000	0.0000	0.0000	11.3333
23.7400	3.7448	0.0000	0.0000	74.17	0.76	0.1200	0.0000	0.0000	0.0000	10.3833
23.9200	3.7171	0.0000	0.0000	44.17	0.45	0.1200	0.0000	0.0000	0.0000	2.6500
24.1400	3.6837	0.0000	0.0000	42.50	0.44	0.1600	0.0000	0.0000	0.0000	2.5500
25.0400	3.5533	0.0000	0.0000	33.33	0.34	0.0600	0.0000	0.0000	0.0000	2.6667
25.3800	3.5064	0.0000	0.0000	155.83	1.60	0.0000	0.0000	0.0000	0.0000	18.7000
26.5200	3.3582	0.0000	0.0000	9759.17	100.00	0.0800	0.0000	0.0000	0.0000	975.9167
26.7800	3.3262	0.0000	0.0000	4640.83	47.55	0.0200	0.0000	0.0000	0.0000	556.9000
27.5000	3.2407	0.0094	0.0000	45.00	0.46	0.0385	0.0233	0.0385	0.0000	3.0749
27.7400	3.2133	0.0000	0.0000	184.17	1.89	0.0600	0.0000	0.0000	0.0000	25.7833
28.2000	3.1619	0.0000	0.0000	60.83	0.62	0.1600	0.0000	0.0000	0.0000	4.8667
28.4000	3.1401	0.0000	0.0000	46.67	0.48	0.1400	0.0000	0.0000	0.0000	6.5333
28.6000	3.1186	0.0000	0.0000	46.67	0.48	0.0600	0.0000	0.0000	0.0000	0.9333
29.4253	3.0329	0.0075	0.0000	20.00	0.20	0.0400	0.0283	0.0400	0.0000	1.5019
29.7800	2.9976	0.0000	0.0000	244.17	2.50	0.0000	0.0000	0.0000	0.0000	34.1833
30.3600	2.9417	0.0000	0.0000	33.33	0.34	0.1600	0.0000	0.0000	0.0000	0.6667
30.5200	2.9266	0.0000	0.0000	34.17	0.35	0.1000	0.0000	0.0000	0.0000	0.6833
31.1600	2.8679	0.0000	0.0000	173.33	1.78	0.0800	0.0000	0.0000	0.0000	27.7333
31.9800	2.7962	0.0000	0.0000	130.83	1.34	0.0200	0.0000	0.0000	0.0000	20.9333
32.9400	2.7169	0.0000	0.0000	38.33	0.39	0.0400	0.0000	0.0000	0.0000	2.3000
34.1400	2.6241	0.0000	0.0000	90.00	0.92	0.1000	0.0000	0.0000	0.0000	12.6000
34.5000	2.5975	0.0000	0.0000	64.17	0.66	0.1000	0.0000	0.0000	0.0000	7.7000
34.8600	2.5715	0.0000	0.0000	190.00	1.95	0.1000	0.0000	0.0000	0.0000	26.6000
35.4200	2.5322	0.0000	0.0000	140.83	1.44	0.0800	0.0000	0.0000	0.0000	16.9000
36.0200	2.4913	0.0000	0.0000	327.50	3.36	0.0200	0.0000	0.0000	0.0000	39.3000
36.4400	2.4636	0.0000	0.0000	850.00	8.71	0.0000	0.0000	0.0000	0.0000	51.0000
36.7000	2.4467	0.0000	0.0000	50.00	0.51	0.1400	0.0000	0.0000	0.0000	8.0000
36.8800	2.4352	0.0000	0.0000	48.33	0.50	0.1400	0.0000	0.0000	0.0000	4.8333
37.4200	2.4013	0.0000	0.0000	46.67	0.48	0.1600	0.0000	0.0000	0.0000	7.4667
37.6400	2.3878	0.0000	0.0000	70.83	0.73	0.0200	0.0000	0.0000	0.0000	11.3333
39.3400	2.2884	0.0000	0.0000	445.00	4.56	0.1000	0.0000	0.0000	0.0000	26.7000
40.1600	2.2435	0.0000	0.0000	237.50	2.43	0.0800	0.0000	0.0000	0.0000	14.2500
41.4600	2.1762	0.0000	0.0000	59.17	0.61	0.0600	0.0000	0.0000	0.0000	8.2833
41.8800	2.1553	0.0000	0.0000	41.67	0.43	0.0600	0.0000	0.0000	0.0000	6.6667
42.3400	2.1329	0.0000	0.0000	340.00	3.48	0.0200	0.0000	0.0000	0.0000	20.4000
44.7200	2.0248	0.0000	0.0000	209.17	2.14	0.0000	0.0000	0.0000	0.0000	20.9167
45.5000	1.9919	0.0000	0.0000	1993.33	20.43	0.1600	0.0000	0.0000	0.0000	239.2000
50.0400	1.8213	0.0000	0.0000	1037.50	10.63	0.0600	0.0000	0.0000	0.0000	62.2500
54.7600	1.6749	0.0000	0.0000	530.00	5.43	0.0000	0.0000	0.0000	0.0000	21.2000
54.9200	1.6704	0.0000	0.0000	275.00	2.82	0.1600	0.0000	0.0000	0.0000	16.5000
55.2000	1.6626	0.0000	0.0000	115.00	1.18	0.0600	0.0000	0.0000	0.0000	11.5000
55.4800	1.6549	0.0000	0.0000	58.33	0.60	0.0600	0.0000	0.0000	0.0000	9.3333
55.7200	1.6483	0.0000	0.0000	120.83	1.24	0.0000	0.0000	0.0000	0.0000	19.3333
57.2600	1.6076	0.0000	0.0000	35.00	0.36	0.0800	0.0000	0.0000	0.0000	2.1000
59.8600	1.5438	0.0000	0.0000	607.50	6.22	0.0400	0.0000	0.0000	0.0000	36.4500
60.0200	1.5401	0.0000	0.0000	342.50	3.51	0.0000	0.0000	0.0000	0.0000	27.4000
60.7400	1.5236	0.0000	0.0000	46.67	0.48	0.1600	0.0000	0.0000	0.0000	4.6667
60.9800	1.5181	0.0000	0.0000	43.33	0.44	0.1000	0.0000	0.0000	0.0000	3.4667
61.5000	1.5065	0.0000	0.0000	62.50	0.64	0.0000	0.0000	0.0000	0.0000	10.0000
63.9200	1.4552	0.0000	0.0000	152.50	1.56	0.0000	0.0000	0.0000	0.0000	9.1500
64.1000	1.4516	0.0000	0.0000	94.17	0.96	0.1000	0.0000	0.0000	0.0000	7.5333