Folder: Non-Linear-XRD-Inversion/Generating XRD fingerprints/INPUT/Source data (part 3)

File: GS02.txt
Position	Dspace	ESD(P)	Corr.Fact	Intensity	Rel.Int.	FWHM(L)	ESD(L)	Area
[deg]	[A]	[deg]	[deg]	[CPS]	[CPS]	[deg]	[deg]	[deg]
2.8400	31.0834	0.0000	0.0000	78.33	1.02	0.0600	0.0000	7.8333
3.0000	29.4259	0.0000	0.0000	80.00	1.04	0.1000	0.0000	8.0000
3.2800	26.9146	0.0000	0.0000	54.17	0.70	0.1000	0.0000	5.4167
3.4800	25.3682	0.0000	0.0000	47.50	0.62	0.1200	0.0000	4.7500
3.6400	24.2534	0.0000	0.0000	62.50	0.81	0.0200	0.0000	3.7500
3.9000	22.6371	0.0000	0.0000	52.50	0.68	0.1600	0.0000	0.0000
3.9800	22.1823	0.0000	0.0000	52.50	0.68	0.0000	0.0000	5.2500
4.1400	21.3253	0.0000	0.0000	55.83	0.73	0.1000	0.0000	4.4667
4.2800	20.6281	0.0000	0.0000	52.50	0.68	0.1200	0.0000	2.1000
4.5000	19.6201	0.0000	0.0000	46.67	0.61	0.1600	0.0000	2.8000
4.6800	18.8659	0.0000	0.0000	54.17	0.70	0.1200	0.0000	4.3333
4.9800	17.7300	0.0000	0.0000	47.50	0.62	0.0400	0.0000	4.7500
5.1400	17.1785	0.0000	0.0000	40.83	0.53	0.0400	0.0000	4.0833
5.2800	16.7233	0.0000	0.0000	39.17	0.51	0.0800	0.0000	0.7833
5.4600	16.1724	0.0000	0.0000	45.83	0.60	0.1000	0.0000	3.6667
5.5000	16.0548	0.0000	0.0000	54.17	0.70	0.0800	0.0000	0.0000
5.7200	15.4378	0.0000	0.0000	40.83	0.53	0.0600	0.0000	0.0000
5.9200	14.9167	0.0000	0.0000	36.67	0.48	0.0800	0.0000	3.6667
6.1200	14.4297	0.0000	0.0000	48.33	0.63	0.1600	0.0000	4.8333
6.2800	14.0624	0.0000	0.0000	70.83	0.92	0.0000	0.0000	5.6667
6.4200	13.7561	0.0000	0.0000	30.83	0.40	0.0000	0.0000	0.0000
6.6000	13.3813	0.0000	0.0000	40.83	0.53	0.0600	0.0000	1.6333
7.0000	12.6175	0.0000	0.0000	39.17	0.51	0.0800	0.0000	0.0000
7.5200	11.7462	0.0000	0.0000	43.33	0.56	0.0600	0.0000	0.8667
7.7200	11.4423	0.0000	0.0000	32.50	0.42	0.0800	0.0000	1.9500
7.8400	11.2674	0.0000	0.0000	29.17	0.38	0.1200	0.0000	0.0000
8.9000	9.9277	0.0000	0.0000	870.83	11.32	0.0600	0.0000	87.0833
9.3000	9.5016	0.0000	0.0000	37.50	0.49	0.1000	0.0000	2.2500
9.4800	9.3216	0.0000	0.0000	40.00	0.52	0.0600	0.0000	4.0000
9.6800	9.1294	0.0000	0.0000	31.67	0.41	0.1200	0.0000	2.5333
9.8400	8.9813	0.0000	0.0000	40.00	0.52	0.0800	0.0000	0.0000
10.1400	8.7163	0.0000	0.0000	30.00	0.39	0.1600	0.0000	0.6000
10.2200	8.6482	0.0000	0.0000	29.17	0.38	0.0800	0.0000	0.0000
10.4600	8.4503	0.0000	0.0000	33.33	0.43	0.0600	0.0000	3.3333
10.5400	8.3864	0.0000	0.0000	32.50	0.42	0.0600	0.0000	0.0000
10.7400	8.2306	0.0000	0.0000	30.83	0.40	0.1200	0.0000	0.6167
11.0400	8.0076	0.0000	0.0000	38.33	0.50	0.0200	0.0000	0.7667
12.5200	7.0642	0.0000	0.0000	133.33	1.73	0.0600	0.0000	13.3333
12.8400	6.8888	0.0000	0.0000	34.17	0.44	0.1400	0.0000	2.0500
13.3800	6.6120	0.0000	0.0000	35.83	0.47	0.0600	0.0000	0.0000
13.6800	6.4677	0.0000	0.0000	52.50	0.68	0.1200	0.0000	7.3500
13.8800	6.3749	0.0000	0.0000	162.50	2.11	0.0000	0.0000	9.7500
15.0200	5.8935	0.0000	0.0000	53.33	0.69	0.1000	0.0000	2.1333
15.8800	5.5763	0.0000	0.0000	30.00	0.39	0.1600	0.0000	0.0000
17.8200	4.9733	0.0000	0.0000	278.33	3.62	0.0000	0.0000	38.9667
18.0400	4.9132	0.0000	0.0000	34.17	0.44	0.0600	0.0000	0.6833
18.8200	4.7113	0.0000	0.0000	69.17	0.90	0.0600	0.0000	4.1500
19.9200	4.4535	0.0000	0.0000	65.00	0.85	0.0000	0.0000	10.4000
20.8800	4.2509	0.0000	0.0000	1498.33	19.48	0.1000	0.0000	119.8667
22.0800	4.0225	0.0000	0.0000	340.00	4.42	0.1000	0.0000	34.0000
22.4800	3.9518	0.0000	0.0000	40.83	0.53	0.0800	0.0000	4.0833
23.0800	3.8504	0.0000	0.0000	81.67	1.06	0.0200	0.0000	11.4333
23.5600	3.7730	0.0000	0.0000	390.83	5.08	0.0600	0.0000	31.2667
24.3200	3.6568	0.0000	0.0000	173.33	2.25	0.0000	0.0000	20.8000
25.1800	3.5338	0.0000	0.0000	85.00	1.11	0.0200	0.0000	8.5000
25.6600	3.4688	0.0000	0.0000	169.17	2.20	0.0400	0.0000	20.3000
26.6600	3.3409	0.0000	0.0000	7690.83	100.00	0.1000	0.0000	769.0834
27.5400	3.2361	0.0000	0.0000	717.50	9.33	0.0000	0.0000	86.1000
27.9600	3.1885	0.0000	0.0000	1789.17	23.26	0.1000	0.0000	214.7000
28.6800	3.1100	0.0000	0.0000	40.83	0.53	0.1400	0.0000	0.0000
29.9200	2.9839	0.0000	0.0000	140.83	1.83	0.0000	0.0000	22.5333
30.1400	2.9626	0.0000	0.0000	85.00	1.11	0.0000	0.0000	13.6000
30.5200	2.9266	0.0000	0.0000	135.83	1.77	0.1000	0.0000	16.3000
30.8600	2.8951	0.0000	0.0000	145.83	1.90	0.0600	0.0000	5.8333
31.2600	2.8590	0.0000	0.0000	115.00	1.50	0.1000	0.0000	13.8000
31.5400	2.8342	0.0000	0.0000	30.83	0.40	0.1200	0.0000	3.0833
32.0800	2.7878	0.0000	0.0000	60.00	0.78	0.1600	0.0000	9.6000
32.1600	2.7810	0.0000	0.0000	54.17	0.70	0.1400	0.0000	8.6667
33.9600	2.6376	0.0000	0.0000	45.00	0.59	0.1400	0.0000	4.5000
34.6600	2.5859	0.0000	0.0000	100.00	1.30	0.0000	0.0000	16.0000
35.0800	2.5559	0.0000	0.0000	184.17	2.39	0.0800	0.0000	22.1000
35.6800	2.5143	0.0000	0.0000	29.17	0.38	0.1200	0.0000	4.0833
36.0600	2.4887	0.0000	0.0000	43.33	0.56	0.1400	0.0000	6.0667
36.5800	2.4545	0.0000	0.0000	590.00	7.67	0.0800	0.0000	35.4000
37.0400	2.4250	0.0000	0.0000	34.17	0.44	0.0800	0.0000	4.1000
37.4200	2.4013	0.0000	0.0000	61.67	0.80	0.0600	0.0000	8.6333
37.6800	2.3853	0.0000	0.0000	62.50	0.81	0.1400	0.0000	10.0000
37.7600	2.3804	0.0000	0.0000	70.00	0.91	0.1400	0.0000	9.8000
38.8400	2.3167	0.0000	0.0000	40.00	0.52	0.1000	0.0000	3.2000
39.5000	2.2795	0.0000	0.0000	428.33	5.57	0.0400	0.0000	25.7000
40.3200	2.2350	0.0000	0.0000	266.67	3.47	0.0000	0.0000	16.0000
41.2600	2.1862	0.0000	0.0000	35.00	0.46	0.0600	0.0000	1.4000
41.8000	2.1592	0.0000	0.0000	65.00	0.85	0.0400	0.0000	6.5000
42.4800	2.1262	0.0000	0.0000	341.67	4.44	0.0800	0.0000	27.3333
43.5600	2.0760	0.0000	0.0000	85.83	1.12	0.1000	0.0000	5.1500
45.6000	1.9877	0.0000	0.0000	204.17	2.65	0.1000	0.0000	32.6667
45.8200	1.9787	0.0000	0.0000	305.83	3.98	0.1000	0.0000	24.4667
47.1600	1.9256	0.0000	0.0000	31.67	0.41	0.0800	0.0000	2.5333
48.0000	1.8938	0.0000	0.0000	47.50	0.62	0.1200	0.0000	0.9500
48.1600	1.8879	0.0000	0.0000	45.83	0.60	0.1600	0.0000	4.5833
48.2800	1.8835	0.0000	0.0000	34.17	0.44	0.1600	0.0000	2.7333
49.0400	1.8561	0.0000	0.0000	42.50	0.55	0.1400	0.0000	2.5500
49.2400	1.8490	0.0000	0.0000	45.00	0.59	0.1200	0.0000	2.7000
50.1800	1.8165	0.0000	0.0000	1279.17	16.63	0.1000	0.0000	76.7500
50.6800	1.7998	0.0000	0.0000	90.00	1.17	0.0000	0.0000	14.4000
51.1600	1.7840	0.0000	0.0000	93.33	1.21	0.0200	0.0000	7.4667
51.3000	1.7795	0.0000	0.0000	58.33	0.76	0.0800	0.0000	3.5000
53.2800	1.7179	0.0000	0.0000	46.67	0.61	0.1000	0.0000	6.5333
54.9000	1.6710	0.0000	0.0000	293.33	3.81	0.0200	0.0000	17.6000
55.0600	1.6665	0.0000	0.0000	187.50	2.44	0.1000	0.0000	11.2500
55.3600	1.6582	0.0000	0.0000	159.17	2.07	0.0200	0.0000	9.5500
55.8800	1.6440	0.0000	0.0000	53.33	0.69	0.1200	0.0000	4.2667
57.2400	1.6081	0.0000	0.0000	32.50	0.42	0.0600	0.0000	1.3000
57.7200	1.5959	0.0000	0.0000	34.17	0.44	0.0600	0.0000	3.4167
57.8600	1.5923	0.0000	0.0000	30.83	0.40	0.0600	0.0000	2.4667
58.7200	1.5711	0.0000	0.0000	42.50	0.55	0.1200	0.0000	5.1000
59.9800	1.5410	0.0000	0.0000	613.33	7.97	0.1000	0.0000	36.8000
60.1400	1.5373	0.0000	0.0000	290.83	3.78	0.0800	0.0000	34.9000
60.5600	1.5276	0.0000	0.0000	31.67	0.41	0.1000	0.0000	3.8000
60.7400	1.5236	0.0000	0.0000	31.67	0.41	0.0400	0.0000	0.0000
61.5200	1.5061	0.0000	0.0000	39.17	0.51	0.1600	0.0000	6.2667
61.6400	1.5034	0.0000	0.0000	45.00	0.59	0.1600	0.0000	7.2000
63.7400	1.4589	0.0000	0.0000	40.83	0.53	0.1600	0.0000	4.9000
64.0600	1.4524	0.0000	0.0000	107.50	1.40	0.0800	0.0000	8.6000
64.2200	1.4491	0.0000	0.0000	57.50	0.75	0.1000	0.0000	6.9000

File: GS05.txt
Position	Dspace	ESD(P)	Corr.Fact	Intensity	Rel.Int.	FWHM(L)	ESD(L)	FWHM(R)	ESD(R)	Area
[deg]	[A]	[deg]	[deg]	[CPS]	[CPS]	[deg]	[deg]	[deg]	[deg]	[deg]
2.7000	32.6948	0.0000	0.0000	100.00	4.72	0.0600	0.0000	0.0000	0.0000	4.0000
2.8000	31.5273	0.0000	0.0000	89.17	4.21	0.0800	0.0000	0.0000	0.0000	0.0000
3.0600	28.8491	0.0000	0.0000	50.00	2.36	0.0600	0.0000	0.0000	0.0000	4.0000
3.2200	27.4159	0.0000	0.0000	49.17	2.32	0.0400	0.0000	0.0000	0.0000	4.9167
3.3800	26.1185	0.0000	0.0000	73.33	3.46	0.1600	0.0000	0.0000	0.0000	1.4667
3.5200	25.0800	0.0000	0.0000	53.33	2.52	0.1200	0.0000	0.0000	0.0000	2.1333
3.7000	23.8603	0.0000	0.0000	44.17	2.09	0.1000	0.0000	0.0000	0.0000	3.5333
3.7800	23.3555	0.0000	0.0000	53.33	2.52	0.0800	0.0000	0.0000	0.0000	2.1333
4.0000	22.0714	0.0000	0.0000	50.83	2.40	0.1200	0.0000	0.0000	0.0000	4.0667
4.1800	21.1214	0.0000	0.0000	49.17	2.32	0.0800	0.0000	0.0000	0.0000	0.0000
4.2600	20.7249	0.0000	0.0000	45.83	2.16	0.1200	0.0000	0.0000	0.0000	4.5833
4.5600	19.3621	0.0000	0.0000	47.50	2.24	0.1600	0.0000	0.0000	0.0000	3.8000
4.7800	18.4714	0.0000	0.0000	47.50	2.24	0.1200	0.0000	0.0000	0.0000	1.9000
4.9400	17.8735	0.0000	0.0000	41.67	1.97	0.1200	0.0000	0.0000	0.0000	5.0000
5.1200	17.2455	0.0000	0.0000	38.33	1.81	0.0600	0.0000	0.0000	0.0000	4.6000
5.4200	16.2916	0.0000	0.0000	47.50	2.24	0.0400	0.0000	0.0000	0.0000	0.0000
5.4800	16.1134	0.0000	0.0000	39.17	1.85	0.0200	0.0000	0.0000	0.0000	3.1333
5.7400	15.3841	0.0000	0.0000	46.67	2.20	0.1600	0.0000	0.0000	0.0000	2.8000
6.1600	14.3361	0.0000	0.0000	222.50	10.51	0.1200	0.0000	0.0000	0.0000	13.3500
6.6600	13.2609	0.0000	0.0000	43.33	2.05	0.1000	0.0000	0.0000	0.0000	0.0000
6.9200	12.7632	0.0000	0.0000	40.00	1.89	0.0200	0.0000	0.0000	0.0000	0.8000
7.3800	11.9687	0.0000	0.0000	35.00	1.65	0.1000	0.0000	0.0000	0.0000	0.7000
7.6000	11.6227	0.0000	0.0000	39.17	1.85	0.0000	0.0000	0.0000	0.0000	1.5667
8.8200	10.0176	0.0000	0.0000	225.00	10.63	0.0400	0.0000	0.0000	0.0000	18.0000
9.1000	9.7099	0.0000	0.0000	130.83	6.18	0.1000	0.0000	0.0000	0.0000	7.8500
9.4200	9.3808	0.0000	0.0000	55.00	2.60	0.1200	0.0000	0.0000	0.0000	5.5000
9.7200	9.0919	0.0000	0.0000	80.83	3.82	0.1000	0.0000	0.0000	0.0000	8.0833
9.9400	8.8912	0.0000	0.0000	39.17	1.85	0.0400	0.0000	0.0000	0.0000	0.0000
10.0600	8.7854	0.0000	0.0000	35.83	1.69	0.0000	0.0000	0.0000	0.0000	2.1500
10.4800	8.4342	0.0000	0.0000	1210.83	57.18	0.0000	0.0000	0.0000	0.0000	96.8667
10.8800	8.1250	0.0000	0.0000	60.83	2.87	0.0400	0.0000	0.0000	0.0000	6.0833
12.1200	7.2964	0.0000	0.0000	426.67	20.15	0.0400	0.0000	0.0000	0.0000	42.6667
12.4400	7.1094	0.0000	0.0000	566.67	26.76	0.1000	0.0000	0.0000	0.0000	34.0000
12.8000	6.9103	0.0000	0.0000	35.00	1.65	0.1600	0.0000	0.0000	0.0000	2.8000
13.8000	6.4117	0.0000	0.0000	235.83	11.14	0.1000	0.0000	0.0000	0.0000	18.8667
15.8200	5.5973	0.0000	0.0000	35.00	1.65	0.0200	0.0000	0.0000	0.0000	3.5000
17.4600	5.0750	0.0000	0.0000	36.67	1.73	0.0800	0.0000	0.0000	0.0000	0.7333
17.6000	5.0350	0.0000	0.0000	120.00	5.67	0.1000	0.0000	0.0000	0.0000	7.2000
17.7600	4.9900	0.0000	0.0000	67.50	3.19	0.1200	0.0000	0.0000	0.0000	5.4000
18.1000	4.8970	0.0000	0.0000	42.50	2.01	0.0600	0.0000	0.0000	0.0000	3.4000
18.3800	4.8230	0.0000	0.0000	72.50	3.42	0.0800	0.0000	0.0000	0.0000	5.8000
18.7200	4.7362	0.0000	0.0000	223.33	10.55	0.1200	0.0000	0.0000	0.0000	17.8667
19.6200	4.5209	0.0000	0.0000	80.83	3.82	0.0000	0.0000	0.0000	0.0000	4.8500
19.8200	4.4757	0.0000	0.0000	36.67	1.73	0.1000	0.0000	0.0000	0.0000	2.9333
20.8000	4.2670	0.0000	0.0000	350.00	16.53	0.0800	0.0000	0.0000	0.0000	28.0000
21.1200	4.2031	0.0000	0.0000	49.17	2.32	0.1600	0.0000	0.0000	0.0000	7.8667
22.0000	4.0369	0.0000	0.0000	225.00	10.63	0.0800	0.0000	0.0000	0.0000	27.0000
23.0000	3.8636	0.0000	0.0000	75.00	3.54	0.1600	0.0000	0.0000	0.0000	7.5000
23.4800	3.7857	0.0000	0.0000	200.83	9.48	0.0600	0.0000	0.0000	0.0000	20.0833
24.2400	3.6687	0.0000	0.0000	139.17	6.57	0.0600	0.0000	0.0000	0.0000	19.4833
24.5600	3.6216	0.0000	0.0000	184.17	8.70	0.0000	0.0000	0.0000	0.0000	25.7833
24.8600	3.5786	0.0000	0.0000	51.67	2.44	0.1600	0.0000	0.0000	0.0000	0.0000
25.0800	3.5477	0.0000	0.0000	372.50	17.59	0.0800	0.0000	0.0000	0.0000	37.2500
25.4000	3.5037	0.0000	0.0000	62.50	2.95	0.1400	0.0000	0.0000	0.0000	10.0000
25.5400	3.4848	0.0000	0.0000	92.50	4.37	0.0600	0.0000	0.0000	0.0000	7.4000
26.2600	3.3909	0.0000	0.0000	205.00	9.68	0.0800	0.0000	0.0000	0.0000	24.6000
26.5800	3.3508	0.0000	0.0000	1070.83	50.57	0.0800	0.0000	0.0000	0.0000	85.6667
26.8200	3.3214	0.0000	0.0000	163.33	7.71	0.0200	0.0000	0.0000	0.0000	22.8667
27.2600	3.2687	0.0000	0.0000	135.83	6.41	0.1000	0.0000	0.0000	0.0000	21.7333
27.8600	3.1997	0.0000	0.0000	2117.50	100.00	0.0400	0.0000	0.0000	0.0000	211.7500
28.6400	3.1143	0.0000	0.0000	517.50	24.44	0.0200	0.0000	0.0000	0.0000	82.8000
29.4200	3.0335	0.0000	0.0000	47.50	2.24	0.1400	0.0000	0.0000	0.0000	3.8000
29.7400	3.0016	0.0000	0.0000	35.00	1.65	0.0800	0.0000	0.0000	0.0000	3.5000
30.0600	2.9703	0.0000	0.0000	58.33	2.75	0.1000	0.0000	0.0000	0.0000	3.5000
30.4000	2.9379	0.0000	0.0000	210.00	9.92	0.0000	0.0000	0.0000	0.0000	25.2000
30.7800	2.9025	0.0000	0.0000	203.33	9.60	0.0600	0.0000	0.0000	0.0000	20.3333
31.2000	2.8644	0.0000	0.0000	88.33	4.17	0.1600	0.0000	0.0000	0.0000	7.0667
31.5200	2.8360	0.0000	0.0000	83.33	3.94	0.1000	0.0000	0.0000	0.0000	11.6667
31.9400	2.7997	0.0000	0.0000	123.33	5.82	0.0600	0.0000	0.0000	0.0000	19.7333
33.0200	2.7105	0.0000	0.0000	353.33	16.69	0.0400	0.0000	0.0000	0.0000	42.4000
33.3200	2.6868	0.0000	0.0000	98.33	4.64	0.0800	0.0000	0.0000	0.0000	3.9333
33.8200	2.6482	0.0000	0.0000	74.17	3.50	0.1000	0.0000	0.0000	0.0000	7.4167
34.5200	2.5961	0.0000	0.0000	165.00	7.79	0.0200	0.0000	0.0000	0.0000	13.2000
34.9400	2.5658	0.0000	0.0000	70.83	3.35	0.0600	0.0000	0.0000	0.0000	5.6667
35.4200	2.5322	0.0000	0.0000	283.33	13.38	0.0000	0.0000	0.0000	0.0000	34.0000
36.5000	2.4597	0.0000	0.0000	107.50	5.08	0.0800	0.0000	0.0000	0.0000	12.9000
36.9200	2.4327	0.0000	0.0000	35.83	1.69	0.0800	0.0000	0.0000	0.0000	0.7167
37.4000	2.4025	0.0000	0.0000	101.67	4.80	0.0200	0.0000	0.0000	0.0000	8.1333
37.6400	2.3878	0.0000	0.0000	93.33	4.41	0.0800	0.0000	0.0000	0.0000	11.2000
37.9000	2.3720	0.0000	0.0000	108.33	5.12	0.0800	0.0000	0.0000	0.0000	6.5000
38.6600	2.3271	0.0000	0.0000	84.17	3.97	0.1200	0.0000	0.0000	0.0000	11.7833
38.7600	2.3213	0.0000	0.0000	80.00	3.78	0.0800	0.0000	0.0000	0.0000	12.8000
39.2600	2.2929	0.0000	0.0000	52.50	2.48	0.1400	0.0000	0.0000	0.0000	8.4000
39.4200	2.2839	0.0000	0.0000	128.33	6.06	0.0000	0.0000	0.0000	0.0000	15.4000
40.2600	2.2382	0.0000	0.0000	44.17	2.09	0.0800	0.0000	0.0000	0.0000	2.6500
41.7400	2.1622	0.0000	0.0000	122.50	5.79	0.0800	0.0000	0.0000	0.0000	19.6000
42.4000	2.1301	0.0000	0.0000	115.83	5.47	0.0600	0.0000	0.0000	0.0000	6.9500
42.7800	2.1120	0.0000	0.0000	52.50	2.48	0.0600	0.0000	0.0000	0.0000	8.4000
42.9200	2.1054	0.0000	0.0000	46.67	2.20	0.1200	0.0000	0.0000	0.0000	3.7333
44.0800	2.0527	0.0000	0.0000	57.50	2.72	0.0800	0.0000	0.0000	0.0000	2.3000
44.1800	2.0483	0.0000	0.0000	46.67	2.20	0.1000	0.0000	0.0000	0.0000	6.5333
44.6800	2.0265	0.0000	0.0000	38.33	1.81	0.0800	0.0000	0.0000	0.0000	1.5333
44.9400	2.0154	0.0000	0.0000	95.00	4.49	0.0800	0.0000	0.0000	0.0000	11.4000
45.4400	1.9944	0.0000	0.0000	64.17	3.03	0.0800	0.0000	0.0000	0.0000	10.2667
45.5400	1.9902	0.0000	0.0000	75.00	3.54	0.1400	0.0000	0.0000	0.0000	9.0000
45.7600	1.9812	0.0000	0.0000	60.83	2.87	0.1200	0.0000	0.0000	0.0000	6.0833
46.4200	1.9545	0.0000	0.0000	41.67	1.97	0.0600	0.0000	0.0000	0.0000	5.0000
47.1200	1.9271	0.0000	0.0000	40.83	1.93	0.1600	0.0000	0.0000	0.0000	6.5333
48.1000	1.8901	0.0000	0.0000	61.67	2.91	0.1600	0.0000	0.0000	0.0000	7.4000
48.4800	1.8762	0.0000	0.0000	97.50	4.60	0.0800	0.0000	0.0000	0.0000	7.8000
48.6400	1.8704	0.0000	0.0000	82.50	3.90	0.1400	0.0000	0.0000	0.0000	8.2500
48.7600	1.8661	0.0000	0.0000	37.50	1.77	0.1000	0.0000	0.0000	0.0000	3.7500
49.8600	1.8274	0.0000	0.0000	46.67	2.20	0.1200	0.0000	0.0000	0.0000	6.5333
50.0800	1.8199	0.0000	0.0000	147.50	6.97	0.0800	0.0000	0.0000	0.0000	8.8500
50.2400	1.8145	0.0000	0.0000	82.50	3.90	0.1400	0.0000	0.0000	0.0000	4.9500
50.5600	1.8038	0.0000	0.0000	82.50	3.90	0.1000	0.0000	0.0000	0.0000	9.9000
51.1200	1.7853	0.0000	0.0000	55.00	2.60	0.1200	0.0000	0.0000	0.0000	8.8000
52.5400	1.7403	0.0000	0.0000	35.00	1.65	0.0800	0.0000	0.0000	0.0000	0.7000
53.1600	1.7215	0.0000	0.0000	50.00	2.36	0.1600	0.0000	0.0000	0.0000	2.0000
53.8600	1.7008	0.0000	0.0000	38.33	1.81	0.0800	0.0000	0.0000	0.0000	0.0000
54.2200	1.6903	0.0000	0.0000	38.33	1.81	0.0800	0.0000	0.0000	0.0000	0.7667
54.7800	1.6744	0.0000	0.0000	53.33	2.52	0.0200	0.0000	0.0000	0.0000	4.2667
54.9800	1.6687	0.0000	0.0000	77.50	3.66	0.0800	0.0000	0.0000	0.0000	6.2000
55.8000	1.6461	0.0000	0.0000	101.67	4.80	0.1000	0.0000	0.0000	0.0000	8.1333
56.1800	1.6359	0.0000	0.0000	161.67	7.63	0.0400	0.0000	0.0000	0.0000	9.7000
57.0600	1.6128	0.0000	0.0000	77.50	3.66	0.1200	0.0000	0.0000	0.0000	7.7500
58.1400	1.5853	0.0000	0.0000	51.67	2.44	0.1600	0.0000	0.0000	0.0000	2.0667
58.3000	1.5814	0.0000	0.0000	65.83	3.11	0.1000	0.0000	0.0000	0.0000	6.5833
58.6000	1.5740	0.0000	0.0000	120.00	5.67	0.1000	0.0000	0.0000	0.0000	9.6000
58.7400	1.5706	0.0000	0.0000	71.67	3.38	0.1000	0.0000	0.0000	0.0000	5.7333
59.3800	1.5552	0.0000	0.0000	42.50	2.01	0.1400	0.0000	0.0000	0.0000	0.0000
59.9000	1.5429	0.0000	0.0000	91.67	4.33	0.0800	0.0000	0.0000	0.0000	7.3333
60.0600	1.5392	0.0000	0.0000	56.67	2.68	0.0800	0.0000	0.0000	0.0000	4.5333
60.5400	1.5281	0.0000	0.0000	80.00	3.78	0.1600	0.0000	0.0000	0.0000	1.6000
60.6400	1.5258	0.0000	0.0000	50.00	2.36	0.0600	0.0000	0.0000	0.0000	8.0000
61.5200	1.5061	0.0000	0.0000	36.67	1.73	0.0400	0.0000	0.0000	0.0000	3.6667