Folder: Non-Linear-XRD-Inversion/Generating XRD fingerprints/INPUT/Source data

Note: Generating XRD fingerprints/INPUT/Source data/GS_01_RT_PF.txt
,,,,,,,,,
Filename:,,,,,,,,,
,C:\Program,Files\Thermo,Electron\WinXRD\Datafiles\HERMAN\GEO\GS_01_RT.pk,,,,,,
,,,,,,,,,
File,Created:,,,,,,,,
,July,13,2018,-,12:38,PM,,,
,,,,,,,,,
Specimen,Id:,,,,,,,,
,GS-01,RT,,,,,,,
,,,,,,,,,
Specimen,Name:,,,,,,,,
,,,,,,,,,
,,,,,,,,,
Specimen,Description:,,,,,,,,
,,,,,,,,,
,,,,,,,,,
Comment:,,,,,,,,,
Scan,Type:,2Theta,Scan,,,,,,
Start,Angle:,1,deg.,,,,,,
Stop,Angle:,65,deg.,,,,,,
Num,Points:,3201,,,,,,,
Step,Size:,0.02,deg.,,,,,,
Scan,Rate:,1.000000,,,,,,,
Scan,Mode:,Continuous,,,,,,,
Wavelength:,1.540562,,,,,,,,
\Kalpha1:,1.540562,\Kalpha2:,1.544390,\Kbeta:,1.392218,,,,
,,,,,,,,,
Optics:,,,,,,,,,
,Detector:,,,,,,,,
,Type:,Fixed,Slits,,,,,,
,Tube:,,,,,,,,
,Type:,Fixed,Slits,,,,,,
,,,,,,,,,
,,,,,,,,,
Datas:,,,,,,,,,
Peaks:,,,,,,,,,
,,,,,,,,,
Position,Dspace,ESD(P),Corr.Fact,Intensity,Rel.Int.,FWHM(L),ESD(L),Area,Source
[deg],[A],[deg],[deg],[CPS],[CPS],[deg],[deg],[deg],[--]
,2.7200,32.4544,0.0000,0.0000,84.17,1.04,0.0600,0.0000,5.0500
,2.8600,30.8660,0.0000,0.0000,70.00,0.86,0.0400,0.0000,8.4000
,3.1400,28.1142,0.0000,0.0000,83.33,1.03,0.0400,0.0000,6.6667
,3.3000,26.7515,0.0000,0.0000,54.17,0.67,0.0400,0.0000,4.3333
,3.4600,25.5148,0.0000,0.0000,67.50,0.83,0.1200,0.0000,6.7500
,3.5800,24.6598,0.0000,0.0000,75.83,0.93,0.0400,0.0000,4.5500
,3.7600,23.4797,0.0000,0.0000,60.00,0.74,0.1000,0.0000,3.6000
,3.8600,22.8716,0.0000,0.0000,47.50,0.59,0.0800,0.0000,3.8000
,4.1400,21.3253,0.0000,0.0000,64.17,0.79,0.1000,0.0000,6.4167
,4.3200,20.4372,0.0000,0.0000,55.83,0.69,0.1000,0.0000,5.5833
,4.4400,19.8851,0.0000,0.0000,59.17,0.73,0.0800,0.0000,1.1833
,4.5000,19.6201,0.0000,0.0000,43.33,0.53,0.1600,0.0000,6.9333
,4.7000,18.7856,0.0000,0.0000,53.33,0.66,0.1000,0.0000,3.2000
,4.8000,18.3945,0.0000,0.0000,45.00,0.55,0.1200,0.0000,3.6000
,5.0200,17.5888,0.0000,0.0000,35.83,0.44,0.1600,0.0000,2.8667
,5.0800,17.3812,0.0000,0.0000,49.17,0.61,0.1000,0.0000,2.9500
,5.2200,16.9154,0.0000,0.0000,40.83,0.50,0.1600,0.0000,1.6333
,5.5000,16.0548,0.0000,0.0000,39.17,0.48,0.0400,0.0000,2.3500
,5.6600,15.6013,0.0000,0.0000,42.50,0.52,0.0800,0.0000,3.4000
,5.8400,15.1209,0.0000,0.0000,48.33,0.60,0.0800,0.0000,0.9667
,5.9800,14.7672,0.0000,0.0000,40.00,0.49,0.1000,0.0000,5.6000
,6.2000,14.2437,0.0000,0.0000,80.83,1.00,0.0000,0.0000,11.3167
,6.6800,13.2212,0.0000,0.0000,45.00,0.55,0.1600,0.0000,0.9000
,6.9200,12.7632,0.0000,0.0000,45.83,0.56,0.0400,0.0000,1.8333
,7.1400,12.3704,0.0000,0.0000,39.17,0.48,0.0600,0.0000,1.5667
,7.3000,12.0996,0.0000,0.0000,37.50,0.46,0.0400,0.0000,0.7500
,7.4600,11.8405,0.0000,0.0000,31.67,0.39,0.0800,0.0000,0.6333
,7.6000,11.6227,0.0000,0.0000,28.33,0.35,0.1600,0.0000,0.0000
,7.7400,11.4128,0.0000,0.0000,26.67,0.33,0.0600,0.0000,2.6667
,8.5200,10.3696,0.0000,0.0000,49.17,0.61,0.1400,0.0000,2.9500
,8.8200,10.0176,0.0000,0.0000,439.17,5.41,0.1000,0.0000,52.7000
,9.1600,9.6465,0.0000,0.0000,52.50,0.65,0.1000,0.0000,3.1500
,9.3400,9.4610,0.0000,0.0000,28.33,0.35,0.0800,0.0000,0.0000
,9.5600,9.2437,0.0000,0.0000,2

Note: Generating XRD fingerprints/INPUT/Source data/GS_06_RT_PF.txt
,,,,,,,,,,,
Filename:,,,,,,,,,,,
,C:\Program,Files\Thermo,Electron\WinXRD\Datafiles\HERMAN\GEO\GS_06_RT.pk,,,,,,,,
,,,,,,,,,,,
File,Created:,,,,,,,,,,
,July,13,2018,-,02:17,PM,,,,,
,,,,,,,,,,,
Specimen,Id:,,,,,,,,,,
,GS-06,RT,,,,,,,,,
,,,,,,,,,,,
Specimen,Name:,,,,,,,,,,
,,,,,,,,,,,
,,,,,,,,,,,
Specimen,Description:,,,,,,,,,,
,,,,,,,,,,,
,,,,,,,,,,,
Comment:,,,,,,,,,,,
Scan,Type:,2Theta,Scan,,,,,,,,
Start,Angle:,1,deg.,,,,,,,,
Stop,Angle:,65,deg.,,,,,,,,
Num,Points:,3201,,,,,,,,,
Step,Size:,0.02,deg.,,,,,,,,
Scan,Rate:,1.000000,,,,,,,,,
Scan,Mode:,Continuous,,,,,,,,,
Wavelength:,1.540562,,,,,,,,,,
\Kalpha1:,1.540562,\Kalpha2:,1.544390,\Kbeta:,1.392218,,,,,,
,,,,,,,,,,,
Optics:,,,,,,,,,,,
,Detector:,,,,,,,,,,
,Type:,Fixed,Slits,,,,,,,,
,Tube:,,,,,,,,,,
,Type:,Fixed,Slits,,,,,,,,
,,,,,,,,,,,
,,,,,,,,,,,
Datas:,,,,,,,,,,,
Peaks:,,,,,,,,,,,
,,,,,,,,,,,
Position,Dspace,ESD(P),Corr.Fact,Intensity,Rel.Int.,FWHM(L),ESD(L),FWHM(R),ESD(R),Area,Source
[deg],[A],[deg],[deg],[CPS],[CPS],[deg],[deg],[deg],[deg],[deg],[--]
,2.7000,32.6948,0.0000,0.0000,82.50,2.73,0.0400,0.0000,0.0000,0.0000,6.6000
,2.8200,31.3038,0.0000,0.0000,60.00,1.99,0.1200,0.0000,0.0000,0.0000,9.6000
,3.0800,28.6618,0.0000,0.0000,82.50,2.73,0.0400,0.0000,0.0000,0.0000,3.3000
,3.1600,27.9364,0.0000,0.0000,65.83,2.18,0.0200,0.0000,0.0000,0.0000,6.5833
,3.3400,26.4312,0.0000,0.0000,68.33,2.26,0.1200,0.0000,0.0000,0.0000,10.9333
,3.4200,25.8131,0.0000,0.0000,65.83,2.18,0.0400,0.0000,0.0000,0.0000,10.5333
,3.5800,24.6598,0.0000,0.0000,68.33,2.26,0.1600,0.0000,0.0000,0.0000,2.7333
,3.8600,22.8716,0.0000,0.0000,77.50,2.57,0.0600,0.0000,0.0000,0.0000,0.0000
,4.1200,21.4288,0.0000,0.0000,58.33,1.93,0.1200,0.0000,0.0000,0.0000,0.0000
,4.2200,20.9212,0.0000,0.0000,55.00,1.82,0.0600,0.0000,0.0000,0.0000,7.7000
,4.4000,20.0658,0.0000,0.0000,60.83,2.01,0.1600,0.0000,0.0000,0.0000,3.6500
,4.6600,18.9468,0.0000,0.0000,60.00,1.99,0.1000,0.0000,0.0000,0.0000,1.2000
,4.8600,18.1675,0.0000,0.0000,54.17,1.79,0.1400,0.0000,0.0000,0.0000,1.0833
,5.0600,17.4499,0.0000,0.0000,50.00,1.66,0.0800,0.0000,0.0000,0.0000,4.0000
,5.3400,16.5355,0.0000,0.0000,70.83,2.35,0.1600,0.0000,0.0000,0.0000,0.0000
,5.7400,15.3841,0.0000,0.0000,47.50,1.57,0.0800,0.0000,0.0000,0.0000,5.7000
,6.1600,14.3361,0.0000,0.0000,180.83,5.99,0.0400,0.0000,0.0000,0.0000,21.7000
,6.7600,13.0649,0.0000,0.0000,51.67,1.71,0.0600,0.0000,0.0000,0.0000,0.0000
,8.8200,10.0176,0.0000,0.0000,327.50,10.84,0.0600,0.0000,0.0000,0.0000,19.6500
,9.1000,9.7099,0.0000,0.0000,75.83,2.51,0.0200,0.0000,0.0000,0.0000,4.5500
,9.4200,9.3808,0.0000,0.0000,90.83,3.01,0.0800,0.0000,0.0000,0.0000,3.6333
,10.4600,8.4503,0.0000,0.0000,1018.33,33.72,0.1000,0.0000,0.0000,0.0000,81.4667
,11.0000,8.0367,0.0000,0.0000,64.17,2.12,0.0800,0.0000,0.0000,0.0000,6.4167
,12.1400,7.2844,0.0000,0.0000,2308.33,76.43,0.1600,0.0000,0.0000,0.0000,138.5000
,12.4400,7.1094,0.0000,0.0000,415.00,13.74,0.0000,0.0000,0.0000,0.0000,49.8000
,13.8000,6.4117,0.0000,0.0000,160.00,5.30,0.1200,0.0000,0.0

File: GR02.txt
Position,Dspace,ESD(P),Corr.Fact,Intensity,Rel.Int.,FWHM(L),ESD(L),FWHM(R),ESD(R),Area
[deg],[A],[deg],[deg],[CPS],[CPS],[deg],[deg],[deg],[deg],[deg]
2.6400,33.4377,0.0000,0.0000,60.00,0.82,0.1600,0.0000,0.0000,0.0000,9.6000
2.9000,30.4404,0.0000,0.0000,85.00,1.16,0.0000,0.0000,0.0000,0.0000,6.8000
3.3400,26.4312,0.0000,0.0000,73.33,1.00,0.0800,0.0000,0.0000,0.0000,4.4000
3.5600,24.7983,0.0000,0.0000,72.50,0.99,0.1600,0.0000,0.0000,0.0000,5.8000
3.6400,24.2534,0.0000,0.0000,53.33,0.73,0.1400,0.0000,0.0000,0.0000,8.5333
3.8200,23.1110,0.0000,0.0000,58.33,0.79,0.1400,0.0000,0.0000,0.0000,2.3333
3.9600,22.2943,0.0000,0.0000,70.00,0.95,0.1000,0.0000,0.0000,0.0000,4.2000
4.2200,20.9212,0.0000,0.0000,53.33,0.73,0.1600,0.0000,0.0000,0.0000,8.5333
4.4200,19.9750,0.0000,0.0000,61.67,0.84,0.1000,0.0000,0.0000,0.0000,3.7000
4.8000,18.3945,0.0000,0.0000,36.67,0.50,0.0400,0.0000,0.0000,0.0000,2.9333
4.9600,17.8015,0.0000,0.0000,43.33,0.59,0.1000,0.0000,0.0000,0.0000,4.3333
5.1200,17.2455,0.0000,0.0000,45.00,0.61,0.0800,0.0000,0.0000,0.0000,5.4000
5.2600,16.7868,0.0000,0.0000,56.67,0.77,0.1000,0.0000,0.0000,0.0000,4.5333
5.4000,16.3519,0.0000,0.0000,45.00,0.61,0.0800,0.0000,0.0000,0.0000,4.5000
5.6600,15.6013,0.0000,0.0000,51.67,0.70,0.1600,0.0000,0.0000,0.0000,1.0333
5.7200,15.4378,0.0000,0.0000,43.33,0.59,0.1400,0.0000,0.0000,0.0000,4.3333
6.0600,14.5724,0.0000,0.0000,41.67,0.57,0.1600,0.0000,0.0000,0.0000,2.5000
6.2400,14.1525,0.0000,0.0000,35.00,0.48,0.1200,0.0000,0.0000,0.0000,2.1000
6.4000,13.7990,0.0000,0.0000,46.67,0.63,0.0800,0.0000,0.0000,0.0000,1.8667
6.5000,13.5869,0.0000,0.0000,40.83,0.56,0.0200,0.0000,0.0000,0.0000,0.8167
6.6400,13.3008,0.0000,0.0000,37.50,0.51,0.0800,0.0000,0.0000,0.0000,1.5000
6.9600,12.6899,0.0000,0.0000,35.00,0.48,0.1600,0.0000,0.0000,0.0000,0.7000
7.0400,12.5459,0.0000,0.0000,37.50,0.51,0.0400,0.0000,0.0000,0.0000,1.5000
7.9000,11.1820,0.0000,0.0000,35.00,0.48,0.1600,0.0000,0.0000,0.0000,0.0000
8.3600,10.5677,0.0000,0.0000,46.67,0.63,0.0400,0.0000,0.0000,0.0000,0.0000
8.8000,10.0403,0.0000,0.0000,1224.17,16.65,0.0800,0.0000,0.0000,0.0000,73.4500
9.1000,9.7099,0.0000,0.0000,40.00,0.54,0.0800,0.0000,0.0000,0.0000,5.6000
9.8200,8.9996,0.0000,0.0000,39.17,0.53,0.0600,0.0000,0.0000,0.0000,0.7833
10.2400,8.6314,0.0000,0.0000,34.17,0.46,0.0800,0.0000,0.0000,0.0000,2.7333
10.2800,8.5979,0.0000,0.0000,35.00,0.48,0.1400,0.0000,0.0000,0.0000,0.0000
10.8400,8.1549,0.0000,0.0000,37.50,0.51,0.0800,0.0000,0.0000,0.0000,1.5000
12.4200,7.1208,0.0000,0.0000,58.33,0.79,0.0600,0.0000,0.0000,0.0000,5.8333
13.6000,6.5055,0.0000,0.0000,90.83,1.24,0.0400,0.0000,0.0000,0.0000,9.0833
13.7800,6.4210,0.0000,0.0000,467.50,6.36,0.0800,0.0000,0.0000,0.0000,18.7000
14.9800,5.9092,0.0000,0.0000,44.17,0.60,0.0600,0.0000,0.0000,0.0000,0.8833
16.7600,5.2854,0.0000,0.0000,35.83,0.49,0.1000,0.0000,0.0000,0.0000,0.0000
17.7400,4.9956,0.0000,0.0000,282.50,3.84,0.1000,0.0000,0.0000,0.0000,28.2500
19.7400,4.4937,0.0000,0.0000,69.17,0.94,0.1000,0.0000,0.0000,0.0000,8.3000
20.7800,4.2711,0.0000,0.0000,1319.17,17.95,0.0600,0.0000,0.0000,0.0000,79.1500
21.9600,4.0442,0.0000,0.0000,587.50,7.99,0.0800,0.0000,0.0000,0.0000,47.0000
22.4400,3.9588,0.0000,0.0000,38.33,0.52,0.1000,0.0000,0.0000,0.0000,3.0667
22.8000,3.8971,0.0000,0.0000,37.50,0.51,0.1200,0.0000,0.0000,0.0000,6.0000
22.9800,3.8669,0.0000,0.0000,160.00,2.18,0.0000,0.0000,0.0000,0.0000,12.8000
23.4600,3.7889,0.0000,0.0000,599.17,8.15,0.0600,0.0000,0.0000,0.0000,59.9167
24.2200,3.6717,0.0000,0.0000,328.33,4.47,0.0200,0.0000,0.0000,0.0000,32.8333
24.5200,3.6274,0.0000,0.0000,49.17,0.67,0.0600,0.0000,0.0000,0.0000,4.9167
25.1000,3.5449,0.0000,0.0000,41.67,0.57,0.1000,0.0000,0.0000,0.0000,3.3333
25.3400,3.5119,0.0000,0.0000,159.17,2.17,0.0600,0.0000,0.0000,0.0000,22.2833
25.5600,3.4822,0.0000,0.0000,225.83,3.07,0.0400,0.0000,0.0000,0.0000,22.5833
26.5600,3.3533,0.0000,0.0000,7350.83,100.00,0.1600,0.0000,0.0000,0.0000,588.0667
26.7600,3.3287,0.0000,0.0000,1002.50,13.64,0.1600,0.0000,0.0000,0.0000,160.4000
27.4400,3.2477,0.0000,0.0000,656.67,8.93,0.0600,0.0000,0.0000,0.0000,65.6667
27.8400,3.2019,0.0000,0.0000,4592.50,62.48,0.0800,0.0000,0.0000,0.0000,459.2500
28.2200,3.1597,0.0000,0.0000,234.17,3.19,0.0200,0.0000,0.0000,0.0000,37.4667
28.5000,3.1293,0.0000,0.0000,34.17,0.46,0.1000,0.0000,0.0000,0.0000,0.6833
29.4400,3.0315,0.0000,0.0000,51.67,0.70,0.1000,0.0000,0.0000,0.0000,8.2667
29.7600,2.9996,0.0000,0.0000,153.33,2.09,0.1400,0.0000,0.0000,0.0000,24.5333
30.1200,2.9646,0.0000,0.0000,118.33,1.61,0.1000,0.0000,0.0000,0.0000,16.5667
30.4400,2.9341,0.0000,0.0000,254.17,3.46,0.0400,0.0000,0.0000,0.0000,15.2500
30.7400,2.9062,0.0000,0.0000,84.17,1.14,0.1000,0.0000,0.0000,0.0000,11.7833
31.1200,2.8715,0.0000,0.0000,140.00,1.90,0.0800,0.0000,0.0000,0.0000,14.0000
31.9600,2.7980,0.0000,0.0000,64.17,0.87,0.1600,0.0000,0.0000,0.0000,8.9833
32.1600,2.7810,0.0000,0.0000,60.00,0.82,0.1600,0.0000,0.0000,0.0000,7.2000
33.8800,2.6437,0.0000,0.0000,62.50,0.85,0.1000,0.0000,0.0000,0.0000,5.0000
34.4400,2.6019,0.0000,0.0000,46.67,0.63,0.1600,0.0000,0.0000,0.0000,7.4667
34.9000,2.5687,0.0000,0.0000,142.50,1.94,0.0200,0.0000,0.0000,0.0000,22.8000
35.6400,2.5170,0.0000,0.0000,55.00,0.75,0.1600,0.0000,0.0000,0.0000,7.7000
35.9600,2.4954,0.0000,0.0000,55.00,0.75,0.0800,0.0000,0.0000,0.0000,8.8000
36.4600,2.4623,0.0000,0.0000,553.33,7.53,0.1000,0.0000,0.0000,0.0000,33.2000
37.2400,2.4125,0.0000,0.0000,71.67,0.97,0.0800,0.0000,0.0000,0.0000,7.1667
37.3600,2.4050,0.0000,0.0000,64.17,0.87,0.0800,0.0000,0.0000,0.0000,10.2667
37.5800,2.3914,0.0000,0.0000,85.00,1.16,0.0200,0.0000,0.0000,0.0000,13.6000
38.7400,2.3225,0.0000,0.0000,134.17,1.83,0.0000,0.0000,0.0000,0.0000,13.4167
39.4000,2.2851,0.0000,0.0000,605.83,8.24,0.1600,0.0000,0.0000,0.0000,36.3500
40.2200,2.2403,0.0000,0.0000,215.83,2.94,0.0200,0.0000,0.0000,0.0000,8.6333
41.1400,2.1923,0.0000,0.0000,35.00,0.48,0.0800,0.0000,0.0000,0.0000,5.6000
41.5000,2.1741,0.0000,0.0000,46.67,0.63,0.0400,0.0000,0.0000,0.0000,1.8667
41.6200,2.1682,0.0000,0.0000,60.83,0.83,0.0200,0.0000,0.0000,0.0000,4.8667
42.3800,2.1310,0.0000,0.0000,446.67,6.08,0.1000,0.0000,0.0000,0.0000,35.7333
43.4600,2.0805,0.0000,0.0000,36.67,0.50,0.1200,0.0000,0.0000,0.0000,2.9333
44.1600,2.0492,0.0000,0.0000,77.50,1.05,0.1200,0.0000,0.0000,0.0000,3.1000
44.9000,2.0171,0.0000,0.0000,37.50,0.51,0.0800,0.0000,0.0000,0.0000,2.2500
45.4400,1.9944,0.0000,0.0000,209.17,2.85,0.0000,0.0000,0.0000,0.0000,29.2833
45.7200,1.9828,0.0000,0.0000,265.00,3.61,0.0600,0.0000,0.0000,0.0000,26.5000
47.0400,1.9302,0.0000,0.0000,50.83,0.69,0.1600,0.0000,0.0000,0.0000,6.1000
48.0600,1.8916,0.0000,0.0000,68.33,0.93,0.1400,0.0000,0.0000,0.0000,6.8333
48.1400,1.8886,0.0000,0.0000,55.00,0.75,0.1200,0.0000,0.0000,0.0000,8.8000
48.9400,1.8596,0.0000,0.0000,51.67,0.70,0.0600,0.0000,0.0000,0.0000,1.0333
49.1200,1.8532,0.0000,0.0000,65.00,0.88,0.1000,0.0000,0.0000,0.0000,5.2000
49.6400,1.8350,0.0000,0.0000,39.17,0.53,0.1600,0.0000,0.0000,0.0000,0.7833
49.7600,1.8309,0.0000,0.0000,38.33,0.52,0.1600,0.0000,0.0000,0.0000,6.1333
50.0800,1.8199,0.0000,0.0000,994.17,13.52,0.0400,0.0000,0.0000,0.0000,59.6500
50.5200,1.8051,0.0000,0.0000,120.83,1.64,0.1000,0.0000,0.0000,0.0000,19.3333
51.0600,1.7873,0.0000,0.0000,55.83,0.76,0.1400,0.0000,0.0000,0.0000,5.5833
52.0600,1.7553,0.0000,0.0000,42.50,0.58,0.1200,0.0000,0.0000,0.0000,3.4000
52.2000,1.7509,0.0000,0.0000,51.67,0.70,0.1600,0.0000,0.0000,0.0000,6.2000
53.2000,1.7203,0.0000,0.0000,59.17,0.80,0.1400,0.0000,0.0000,0.0000,4.7333
54.2600,1.6892,0.0000,0.0000,36.67,0.50,0.1000,0.0000,0.0000,0.0000,1.4667
54.8000,1.6738,0.0000,0.0000,214.17,2.91,0.0400,0.0000,0.0000,0.0000,17.1333
55.2600,1.6609,0.0000,0.0000,123.33,1.68,0.0400,0.0000,0.0000,0.0000,12.3333
55.7800,1.6467,0.0000,0.0000,44.17,0.60,0.0400,0.0000,0.0000,0.0000,5.3000
58.3000,1.5814,0.0000,0.0000,39.17,0.53,0.0200,0.0000,0.0000,0.0000,1.5667
58.5600,1.5750,0.0000,0.0000,75.83,1.03,0.0600,0.0000,0.0000,0.0000,7.5833
58.7000,1.5715,0.0000,0.0000,60.83,0.83,0.1600,0.0000,0.0000,0.0000,3.6500
59.8800,1.5434,0.0000,0.0000,527.50,7.18,0.1200,0.0000,0.0000,0.0000,42.2000
60.0400,1.5396,0.0000,0.0000,269.17,3.66,0.0600,0.0000,0.0000,0.0000,37.6833
61.4200,1.5083,0.0000,0.0000,68.33,0.93,0.0800,0.0000,0.0000,0.0000,10.9333
61.6400,1.5034,0.0000,0.0000,70.00,0.95,0.1000,0.0000,0.0000,0.0000,11.2000
63.6400,1.4609,0.0000,0.0000,35.00,0.48,0.0600,0.0000,0.0000,0.0000,4.2000
63.9600,1.4544,0.0000,0.0000,74.17,1.01,0.0800,0.0000,0.0000,0.0000,7.4167
64.1600,1.4503,0.0000,0.0000,49.17,0.67,0.1000,0.0000,0.0000,0.0000,3.9333

File: GR03bis.txt
Position	Dspace	ESD(P)	Corr.Fact	Intensity	Rel.Int.	FWHM(L)	ESD(L)	FWHM(R)	ESD(R)	Area
[deg]	[A]	[deg]	[deg]	[CPS]	[CPS]	[deg]	[deg]	[deg]	[deg]	[deg]
2.6400	33.4377	0.0000	0.0000	90.00	1.30	0.0600	0.0000	0.0000	0.0000	5.4000
2.8400	31.0834	0.0000	0.0000	73.33	1.06	0.0800	0.0000	0.0000	0.0000	10.2667
2.9600	29.8235	0.0000	0.0000	65.83	0.95	0.0000	0.0000	0.0000	0.0000	3.9500
3.1600	27.9364	0.0000	0.0000	60.83	0.88	0.0800	0.0000	0.0000	0.0000	6.0833
3.2800	26.9146	0.0000	0.0000	69.17	1.00	0.0000	0.0000	0.0000	0.0000	4.1500
3.4000	25.9649	0.0000	0.0000	63.33	0.92	0.0200	0.0000	0.0000	0.0000	10.1333
3.7000	23.8603	0.0000	0.0000	55.83	0.81	0.1600	0.0000	0.0000	0.0000	3.3500
3.9800	22.1823	0.0000	0.0000	51.67	0.75	0.1600	0.0000	0.0000	0.0000	0.0000
4.0200	21.9616	0.0000	0.0000	63.33	0.92	0.1400	0.0000	0.0000	0.0000	0.0000
4.2400	20.8226	0.0000	0.0000	48.33	0.70	0.1400	0.0000	0.0000	0.0000	1.9333
4.3400	20.3430	0.0000	0.0000	51.67	0.75	0.1400	0.0000	0.0000	0.0000	1.0333
4.5800	19.2776	0.0000	0.0000	55.00	0.79	0.1200	0.0000	0.0000	0.0000	2.2000
4.7200	18.7061	0.0000	0.0000	46.67	0.67	0.0400	0.0000	0.0000	0.0000	6.5333
4.8800	18.0931	0.0000	0.0000	52.50	0.76	0.1000	0.0000	0.0000	0.0000	0.0000
4.9800	17.7300	0.0000	0.0000	31.67	0.46	0.1400	0.0000	0.0000	0.0000	2.5333
5.1600	17.1119	0.0000	0.0000	51.67	0.75	0.1200	0.0000	0.0000	0.0000	1.0333
5.4400	16.2318	0.0000	0.0000	45.00	0.65	0.1600	0.0000	0.0000	0.0000	1.8000
5.6400	15.6566	0.0000	0.0000	40.83	0.59	0.0000	0.0000	0.0000	0.0000	1.6333
5.9000	14.9672	0.0000	0.0000	38.33	0.55	0.1400	0.0000	0.0000	0.0000	0.0000
6.3200	13.9735	0.0000	0.0000	45.00	0.65	0.1600	0.0000	0.0000	0.0000	3.6000
6.4200	13.7561	0.0000	0.0000	32.50	0.47	0.1000	0.0000	0.0000	0.0000	3.2500
6.6000	13.3813	0.0000	0.0000	35.00	0.51	0.0800	0.0000	0.0000	0.0000	1.4000
6.7800	13.0264	0.0000	0.0000	29.17	0.42	0.1400	0.0000	0.0000	0.0000	1.1667
6.9000	12.8002	0.0000	0.0000	34.17	0.49	0.1000	0.0000	0.0000	0.0000	0.6833
7.0400	12.5459	0.0000	0.0000	29.17	0.42	0.0800	0.0000	0.0000	0.0000	0.0000
7.1400	12.3704	0.0000	0.0000	34.17	0.49	0.0200	0.0000	0.0000	0.0000	1.3667
7.6000	11.6227	0.0000	0.0000	39.17	0.57	0.0400	0.0000	0.0000	0.0000	0.7833
7.9000	11.1820	0.0000	0.0000	30.83	0.45	0.1000	0.0000	0.0000	0.0000	1.2333
8.0000	11.0424	0.0000	0.0000	29.17	0.42	0.1600	0.0000	0.0000	0.0000	2.3333
8.3000	10.6440	0.0000	0.0000	33.33	0.48	0.1400	0.0000	0.0000	0.0000	0.6667
8.9000	9.9277	0.0000	0.0000	961.67	13.90	0.1600	0.0000	0.0000	0.0000	96.1667
9.4400	9.3610	0.0000	0.0000	35.00	0.51	0.1600	0.0000	0.0000	0.0000	1.4000
9.8400	8.9813	0.0000	0.0000	30.00	0.43	0.0800	0.0000	0.0000	0.0000	0.6000
10.0600	8.7854	0.0000	0.0000	34.17	0.49	0.1600	0.0000	0.0000	0.0000	0.0000
10.2400	8.6314	0.0000	0.0000	30.83	0.45	0.1000	0.0000	0.0000	0.0000	1.2333
10.6400	8.3078	0.0000	0.0000	31.67	0.46	0.0600	0.0000	0.0000	0.0000	0.6333
11.0800	7.9788	0.0000	0.0000	55.00	0.79	0.0600	0.0000	0.0000	0.0000	3.3000
11.5400	7.6618	0.0000	0.0000	35.00	0.51	0.1400	0.0000	0.0000	0.0000	2.1000
12.0000	7.3691	0.0000	0.0000	33.33	0.48	0.1400	0.0000	0.0000	0.0000	0.6667
12.5200	7.0642	0.0000	0.0000	40.00	0.58	0.0000	0.0000	0.0000	0.0000	4.0000
13.3400	6.6317	0.0000	0.0000	30.83	0.45	0.0000	0.0000	0.0000	0.0000	0.6167
13.4800	6.5632	0.0000	0.0000	32.50	0.47	0.0600	0.0000	0.0000	0.0000	5.2000
13.7000	6.4583	0.0000	0.0000	112.50	1.63	0.0400	0.0000	0.0000	0.0000	9.0000
13.9000	6.3658	0.0000	0.0000	140.00	2.02	0.0400	0.0000	0.0000	0.0000	11.2000
14.2800	6.1972	0.0000	0.0000	32.50	0.47	0.1000	0.0000	0.0000	0.0000	0.0000
14.8400	5.9646	0.0000	0.0000	32.50	0.47	0.0400	0.0000	0.0000	0.0000	0.0000
15.0400	5.8857	0.0000	0.0000	42.50	0.61	0.0600	0.0000	0.0000	0.0000	5.1000
15.3400	5.7713	0.0000	0.0000	34.17	0.49	0.1600	0.0000	0.0000	0.0000	0.6833
16.8200	5.2667	0.0000	0.0000	29.17	0.42	0.0600	0.0000	0.0000	0.0000	0.0000
17.8400	4.9678	0.0000	0.0000	254.17	3.67	0.0400	0.0000	0.0000	0.0000	20.3333
19.8400	4.4713	0.0000	0.0000	66.67	0.96	0.0200	0.0000	0.0000	0.0000	9.3333
20.6400	4.2997	0.0000	0.0000	32.50	0.47	0.1400	0.0000	0.0000	0.0000	0.6500
20.8800	4.2509	0.0000	0.0000	1058.33	15.29	0.1000	0.0000	0.0000	0.0000	84.6667
22.0800	4.0225	0.0000	0.0000	468.33	6.77	0.0000	0.0000	0.0000	0.0000	46.8333
22.5600	3.9380	0.0000	0.0000	94.17	1.36	0.0400	0.0000	0.0000	0.0000	11.3000
23.0600	3.8537	0.0000	0.0000	120.00	1.73	0.1000	0.0000	0.0000	0.0000	9.6000
23.5800	3.7699	0.0000	0.0000	365.00	5.27	0.0000	0.0000	0.0000	0.0000	51.1000
24.3000	3.6598	0.0000	0.0000	255.00	3.68	0.0400	0.0000	0.0000	0.0000	40.8000
24.5800	3.6187	0.0000	0.0000	41.67	0.60	0.1600	0.0000	0.0000	0.0000	2.5000
25.6800	3.4662	0.0000	0.0000	280.83	4.06	0.0800	0.0000	0.0000	0.0000	33.7000
26.6600	3.3409	0.0000	0.0000	6920.00	100.00	0.0600	0.0000	0.0000	0.0000	692.0000
27.5200	3.2384	0.0000	0.0000	2610.00	37.72	0.1400	0.0000	0.0000	0.0000	313.2000
27.9600	3.1885	0.0000	0.0000	1315.00	19.00	0.0600	0.0000	0.0000	0.0000	184.1000
29.8600	2.9898	0.0000	0.0000	195.83	2.83	0.0400	0.0000	0.0000	0.0000	31.3333
30.1200	2.9646	0.0000	0.0000	133.33	1.93	0.0800	0.0000	0.0000	0.0000	21.3333
30.5400	2.9247	0.0000	0.0000	146.67	2.12	0.0000	0.0000	0.0000	0.0000	20.5333
30.8800	2.8933	0.0000	0.0000	103.33	1.49	0.0000	0.0000	0.0000	0.0000	12.4000
31.2600	2.8590	0.0000	0.0000	125.00	1.81	0.0200	0.0000	0.0000	0.0000	17.5000
32.0600	2.7895	0.0000	0.0000	63.33	0.92	0.0800	0.0000	0.0000	0.0000	10.1333
32.3400	2.7659	0.0000	0.0000	84.17	1.22	0.0200	0.0000	0.0000	0.0000	13.4667
33.5600	2.6681	0.0000	0.0000	50.83	0.73	0.1600	0.0000	0.0000	0.0000	2.0333
33.9400	2.6391	0.0000	0.0000	41.67	0.60	0.0800	0.0000	0.0000	0.0000	5.0000
34.3200	2.6108	0.0000	0.0000	45.00	0.65	0.0800	0.0000	0.0000	0.0000	3.6000
34.5400	2.5946	0.0000	0.0000	44.17	0.64	0.0600	0.0000	0.0000	0.0000	7.0667
35.0600	2.5573	0.0000	0.0000	134.17	1.94	0.0400	0.0000	0.0000	0.0000	21.4667
35.7000	2.5129	0.0000	0.0000	59.17	0.86	0.1000	0.0000	0.0000	0.0000	9.4667
36.0400	2.4900	0.0000	0.0000	80.00	1.16	0.1600	0.0000	0.0000	0.0000	4.8000
36.5600	2.4558	0.0000	0.0000	358.33	5.18	0.0400	0.0000	0.0000	0.0000	21.5000
37.4600	2.3988	0.0000	0.0000	55.83	0.81	0.1400	0.0000	0.0000	0.0000	8.9333
37.6400	2.3878	0.0000	0.0000	72.50	1.05	0.0800	0.0000	0.0000	0.0000	10.1500
38.7000	2.3248	0.0000	0.0000	46.67	0.67	0.1600	0.0000	0.0000	0.0000	3.7333
38.8600	2.3156	0.0000	0.0000	45.00	0.65	0.1200	0.0000	0.0000	0.0000	7.2000
39.2600	2.2929	0.0000	0.0000	36.67	0.53	0.0800	0.0000	0.0000	0.0000	0.0000
39.5000	2.2795	0.0000	0.0000	302.50	4.37	0.0400	0.0000	0.0000	0.0000	18.1500
40.1200	2.2457	0.0000	0.0000	36.67	0.53	0.0000	0.0000	0.0000	0.0000	0.0000
40.3200	2.2350	0.0000	0.0000	234.17	3.38	0.0800	0.0000	0.0000	0.0000	9.3667
41.2600	2.1862	0.0000	0.0000	41.67	0.60	0.1400	0.0000	0.0000	0.0000	5.8333
41.7200	2.1632	0.0000	0.0000	245.00	3.54	0.0000	0.0000	0.0000	0.0000	24.5000
42.5000	2.1253	0.0000	0.0000	276.67	4.00	0.0200	0.0000	0.0000	0.0000	38.7333
42.9600	2.1036	0.0000	0.0000	36.67	0.53	0.1400	0.0000	0.0000	0.0000	0.0000
43.5400	2.0769	0.0000	0.0000	31.67	0.46	0.0800	0.0000	0.0000	0.0000	2.5333
45.0000	2.0128	0.0000	0.0000	44.17	0.64	0.1600	0.0000	0.0000	0.0000	6.1833
45.5200	1.9910	0.0000	0.0000	226.67	3.28	0.1000	0.0000	0.0000	0.0000	36.2667
45.8200	1.9787	0.0000	0.0000	285.00	4.12	0.0000	0.0000	0.0000	0.0000	22.8000
47.1600	1.9256	0.0000	0.0000	67.50	0.98	0.1200	0.0000	0.0000	0.0000	10.8000
48.0400	1.8923	0.0000	0.0000	41.67	0.60	0.1600	0.0000	0.0000	0.0000	6.6667
48.1800	1.8872	0.0000	0.0000	47.50	0.69	0.1600	0.0000	0.0000	0.0000	7.6000
49.0400	1.8561	0.0000	0.0000	33.33	0.48	0.0600	0.0000	0.0000	0.0000	0.6667
49.2000	1.8504	0.0000	0.0000	34.17	0.49	0.1600	0.0000	0.0000	0.0000	3.4167
50.1800	1.8165	0.0000	0.0000	995.83	14.39	0.0600	0.0000	0.0000	0.0000	59.7500
50.8000	1.7958	0.0000	0.0000	138.33	2.00	0.0200	0.0000	0.0000	0.0000	19.3667
51.2000	1.7827	0.0000	0.0000	92.50	1.34	0.0200	0.0000	0.0000	0.0000	12.9500
51.3000	1.7795	0.0000	0.0000	81.67	1.18	0.0200	0.0000	0.0000	0.0000	11.4333
51.6800	1.7673	0.0000	0.0000	104.17	1.51	0.0200	0.0000	0.0000	0.0000	4.1667
52.1800	1.7515	0.0000	0.0000	30.00	0.43	0.0200	0.0000	0.0000	0.0000	3.0000
52.3400	1.7465	0.0000	0.0000	31.67	0.46	0.0600	0.0000	0.0000	0.0000	1.9000
53.3200	1.7167	0.0000	0.0000	55.83	0.81	0.0800	0.0000	0.0000	0.0000	5.5833
54.5600	1.6806	0.0000	0.0000	30.00	0.43	0.0600	0.0000	0.0000	0.0000	1.8000
54.9000	1.6710	0.0000	0.0000	309.17	4.47	0.0200	0.0000	0.0000	0.0000	18.5500
55.0600	1.6665	0.0000	0.0000	151.67	2.19	0.0400	0.0000	0.0000	0.0000	12.1333
55.3400	1.6587	0.0000	0.0000	83.33	1.20	0.1000	0.0000	0.0000	0.0000	5.0000
55.8200	1.6456	0.0000	0.0000	50.00	0.72	0.1200	0.0000	0.0000	0.0000	7.0000
56.0000	1.6407	0.0000	0.0000	29.17	0.42	0.1400	0.0000	0.0000	0.0000	0.0000
56.7200	1.6216	0.0000	0.0000	30.00	0.43	0.0800	0.0000	0.0000	0.0000	3.0000
58.7800	1.5696	0.0000	0.0000	57.50	0.83	0.1200	0.0000	0.0000	0.0000	5.7500
59.9800	1.5410	0.0000	0.0000	558.33	8.07	0.0600	0.0000	0.0000	0.0000	44.6667
60.1600	1.5368	0.0000	0.0000	295.83	4.28	0.1400	0.0000	0.0000	0.0000	17.7500
61.5400	1.5057	0.0000	0.0000	68.33	0.99	0.0000	0.0000	0.0000	0.0000	1.3667
61.6600	1.5030	0.0000	0.0000	50.00	0.72	0.1400	0.0000	0.0000	0.0000	4.0000
61.9800	1.4960	0.0000	0.0000	40.00	0.58	0.0600	0.0000	0.0000	0.0000	5.6000
63.7400	1.4589	0.0000	0.0000	37.50	0.54	0.1000	0.0000	0.0000	0.0000	2.2500
63.8800	1.4560	0.0000	0.0000	31.67	0.46	0.0600	0.0000	0.0000	0.0000	5.0667
64.0600	1.4524	0.0000	0.0000	150.83	2.18	0.0200	0.0000	0.0000	0.0000	12.0667
64.2200	1.4491	0.0000	0.0000	88.33	1.28	0.0600	0.0000	0.0000	0.0000	12.3667